SUBJECT,TRIAL,REACTION_TIME,CORRECT,TYPE_OF_TASK
IDU002,1,406,1,0
IDU002,2,345,1,0
IDU002,3,-1,1,0
IDU002,4,327,1,0
IDU002,5,383,1,0
IDU002,6,-1,1,0
IDU002,7,347,1,0
IDU002,8,367,1,0
IDU002,9,348,1,0
IDU002,10,-1,1,0
IDU002,11,413,1,0
IDU002,12,352,1,0
IDU002,13,389,1,0
IDU002,14,349,1,0
IDU002,15,343,1,0
IDU002,16,344,1,0
IDU002,17,350,1,0
IDU002,18,371,1,0
IDU002,19,-1,1,0
IDU002,20,395,1,0
IDU002,21,403,1,0
IDU002,22,342,1,0
IDU002,23,-1,1,0
IDU002,24,307,1,0
IDU002,25,344,1,0
IDU002,26,371,1,0
IDU002,27,392,1,0
IDU002,28,333,1,0
IDU002,29,343,1,0
IDU002,30,-1,1,0
IDU002,31,307,1,0
IDU002,32,-1,1,0
IDU002,33,344,1,0
IDU002,34,356,1,0
IDU002,35,359,1,0
IDU002,36,363,1,0
IDU002,37,-1,1,0
IDU002,38,334,1,0
IDU002,39,369,1,0
IDU002,40,368,1,0
IDU002,41,409,1,0
IDU002,42,-1,1,0
IDU002,43,323,1,0
IDU002,44,-1,1,0
IDU002,45,387,1,0
IDU002,46,-1,1,0
IDU002,47,433,1,0
IDU002,48,559,1,0
IDU002,49,420,1,0
IDU002,50,538,1,0
IDU002,51,365,1,0
IDU002,52,-1,1,0
IDU002,53,428,1,0
IDU002,54,363,1,0
IDU002,55,336,1,0
IDU002,56,358,1,0
IDU002,57,299,1,0
IDU002,58,366,1,0
IDU002,59,279,1,0
IDU002,60,-1,1,0
IDU002,61,320,1,0
IDU002,62,316,1,0
IDU002,63,329,1,0
IDU002,64,-1,1,0
IDU002,65,349,1,0
IDU002,66,332,1,0
IDU002,67,-1,1,0
IDU002,68,326,1,0
IDU002,69,330,1,0
IDU002,70,336,1,0
IDU002,71,297,1,0
IDU002,72,-1,1,0
IDU002,73,379,1,0
IDU002,74,382,1,0
IDU002,75,441,1,0
IDU002,76,321,1,0
IDU002,77,-1,1,0
IDU002,1,1078,1,1
IDU002,2,616,1,1
IDU002,3,949,1,1
IDU002,4,453,1,1
IDU002,5,751,1,1
IDU002,6,612,1,1
IDU002,7,811,1,1
IDU002,8,497,1,1
IDU002,9,798,1,1
IDU002,10,770,1,1
IDU002,11,497,1,1
IDU002,12,654,1,1
IDU002,13,833,1,1
IDU002,14,1087,1,1
IDU002,15,662,1,1
IDU002,16,765,1,1
IDU002,17,674,1,1
IDU002,18,959,1,1
IDU002,19,662,1,1
IDU002,20,755,1,1
IDU002,21,707,1,1
IDU002,22,589,1,1
IDU002,23,716,1,1
IDU002,24,633,1,1
IDU002,1,834,-1,2
IDU002,1,1168,-1,4
IDU002,1,2002,-1,5
IDU002,1,467,-1,3
IDU002,2,668,-1,2
IDU002,2,2135,-1,4
IDU002,2,2803,-1,5
IDU002,2,700,-1,3
IDU002,3,701,-1,2
IDU002,3,1234,-1,4
IDU002,3,1935,-1,5
IDU002,3,133,-1,3
IDU002,4,267,-1,2
IDU002,4,1835,-1,4
IDU002,4,2102,-1,5
IDU002,5,768,-1,2
IDU002,5,1901,-1,4
IDU002,5,2669,-1,5
IDU002,5,300,-1,3
IDU002,6,634,-1,2
IDU002,6,1301,-1,4
IDU002,6,1935,-1,5
IDU002,7,633,-1,2
IDU002,7,1001,-1,4
IDU002,7,1634,-1,5
IDU002,7,667,-1,3
IDU002,8,834,-1,2
IDU002,8,1535,-1,4
IDU002,8,2369,-1,5
IDU002,9,634,-1,2
IDU002,9,734,-1,4
IDU002,9,1368,-1,5
IDU002,9,366,-1,3
IDU002,10,667,-1,2
IDU002,10,834,-1,4
IDU002,10,1501,-1,5
IDU002,10,134,-1,3
IDU002,11,734,-1,2
IDU002,11,1301,-1,4
IDU002,11,2035,-1,5
IDU002,12,934,-1,2
IDU002,12,700,-1,4
IDU002,12,1634,-1,5
IDU002,12,500,-1,3
IDU002,13,667,-1,2
IDU002,13,1268,-1,4
IDU002,13,1935,-1,5
IDU002,13,467,-1,3
IDU002,14,667,-1,2
IDU002,14,2535,-1,4
IDU002,14,3202,-1,5
IDU002,15,834,-1,2
IDU002,15,1134,-1,4
IDU002,15,1968,-1,5
IDU002,15,367,-1,3
IDU002,16,701,-1,2
IDU002,16,1335,-1,4
IDU002,16,2036,-1,5
IDU002,16,567,-1,3
IDU002,17,567,-1,2
IDU002,17,1134,-1,4
IDU002,17,1701,-1,5
IDU002,17,267,-1,3
IDU005,1,687,1,0
IDU005,2,466,1,0
IDU005,3,435,1,0
IDU005,4,465,1,0
IDU005,5,-1,1,0
IDU005,6,431,1,0
IDU005,7,469,1,0
IDU005,8,339,1,0
IDU005,9,370,1,0
IDU005,10,-1,1,0
IDU005,11,383,1,0
IDU005,12,-1,1,0
IDU005,13,407,1,0
IDU005,14,-1,1,0
IDU005,15,336,1,0
IDU005,16,508,1,0
IDU005,17,406,1,0
IDU005,18,-1,1,0
IDU005,19,309,1,0
IDU005,20,371,1,0
IDU005,21,365,1,0
IDU005,22,397,1,0
IDU005,23,-1,1,0
IDU005,24,478,1,0
IDU005,25,414,1,0
IDU005,26,354,1,0
IDU005,27,-1,1,0
IDU005,28,349,1,0
IDU005,29,401,1,0
IDU005,30,366,1,0
IDU005,31,346,1,0
IDU005,32,306,1,0
IDU005,33,466,1,0
IDU005,34,373,1,0
IDU005,35,432,1,0
IDU005,36,349,1,0
IDU005,37,-1,1,0
IDU005,38,344,1,0
IDU005,39,335,1,0
IDU005,40,-1,1,0
IDU005,41,283,1,0
IDU005,42,336,1,0
IDU005,43,322,1,0
IDU005,44,-1,1,0
IDU005,45,272,1,0
IDU005,46,311,1,0
IDU005,47,-1,1,0
IDU005,48,284,1,0
IDU005,49,376,1,0
IDU005,50,-1,1,0
IDU005,51,300,1,0
IDU005,52,322,1,0
IDU005,53,366,1,0
IDU005,54,-1,1,0
IDU005,55,291,1,0
IDU005,56,338,1,0
IDU005,57,319,1,0
IDU005,58,329,1,0
IDU005,59,337,1,0
IDU005,60,326,1,0
IDU005,61,330,1,0
IDU005,62,378,1,0
IDU005,63,318,1,0
IDU005,64,386,1,0
IDU005,65,287,1,0
IDU005,66,-1,1,0
IDU005,67,300,1,0
IDU005,68,321,1,0
IDU005,69,454,1,0
IDU005,70,282,0,0
IDU005,71,421,1,0
IDU005,72,485,1,0
IDU005,73,367,1,0
IDU005,74,-1,1,0
IDU005,75,369,1,0
IDU005,76,-1,1,0
IDU005,77,322,1,0
IDU005,1,1059,1,1
IDU005,2,1039,1,1
IDU005,3,682,1,1
IDU005,4,1172,1,1
IDU005,5,1417,1,1
IDU005,6,2469,1,1
IDU005,7,1194,1,1
IDU005,8,1327,1,1
IDU005,9,1753,1,1
IDU005,10,827,1,1
IDU005,11,839,1,1
IDU005,12,2009,1,1
IDU005,13,2044,1,1
IDU005,14,904,1,1
IDU005,15,1687,1,1
IDU005,16,1136,1,1
IDU005,17,901,1,1
IDU005,18,652,1,1
IDU005,19,1061,1,1
IDU005,20,1052,1,1
IDU005,21,872,1,1
IDU005,22,941,1,1
IDU005,23,1085,1,1
IDU005,24,1030,1,1
IDU005,1,667,-1,2
IDU005,1,1301,-1,4
IDU005,1,1968,-1,5
IDU005,1,367,0,6
IDU005,1,534,-1,3
IDU005,2,633,-1,2
IDU005,2,2035,-1,4
IDU005,2,2668,-1,5
IDU005,3,800,-1,2
IDU005,3,1401,-1,4
IDU005,3,2201,-1,5
IDU005,4,735,-1,2
IDU005,4,1668,-1,4
IDU005,4,2403,-1,5
IDU005,4,501,-1,3
IDU005,5,567,-1,2
IDU005,5,1568,-1,4
IDU005,5,2135,-1,5
IDU005,5,534,-1,3
IDU005,6,634,-1,2
IDU005,6,1101,-1,4
IDU005,6,1735,-1,5
IDU005,6,433,0,6
IDU005,6,301,-1,3
IDU005,7,567,-1,2
IDU005,7,1435,-1,4
IDU005,7,2002,-1,5
IDU005,7,300,-1,3
IDU005,8,500,-1,2
IDU005,8,1234,-1,4
IDU005,8,1734,-1,5
IDU005,8,634,0,6
IDU005,9,700,-1,2
IDU005,9,1267,-1,4
IDU005,9,1967,-1,5
IDU005,9,734,0,6
IDU005,9,734,-1,3
IDU005,10,567,-1,2
IDU005,10,1268,-1,4
IDU005,10,1835,-1,5
IDU005,11,500,-1,2
IDU005,11,1734,-1,4
IDU005,11,2234,-1,5
IDU005,12,634,-1,2
IDU005,12,2835,-1,4
IDU005,12,3469,-1,5
IDU005,12,500,-1,3
IDU005,13,601,-1,2
IDU005,13,1935,-1,4
IDU005,13,2536,-1,5
IDU005,13,300,-1,3
IDU005,14,466,-1,2
IDU005,14,1868,-1,4
IDU005,14,2334,-1,5
IDU005,14,500,-1,3
IDU005,15,700,-1,2
IDU005,15,1834,-1,4
IDU005,15,2534,-1,5
IDU005,15,200,-1,3
IDU005,16,600,-1,2
IDU005,16,1768,-1,4
IDU005,16,2368,-1,5
IDU005,16,367,-1,3
IDU005,17,834,-1,2
IDU005,17,1501,-1,4
IDU005,17,2335,-1,5
IDU005,17,334,-1,3
IDU008,1,323,1,0
IDU008,2,322,1,0
IDU008,3,306,1,0
IDU008,4,-1,1,0
IDU008,5,394,1,0
IDU008,6,364,1,0
IDU008,7,-1,1,0
IDU008,8,306,1,0
IDU008,9,-1,1,0
IDU008,10,371,1,0
IDU008,11,353,1,0
IDU008,12,379,1,0
IDU008,13,-1,1,0
IDU008,14,349,1,0
IDU008,15,326,1,0
IDU008,16,-1,1,0
IDU008,17,328,1,0
IDU008,18,448,1,0
IDU008,19,388,1,0
IDU008,20,314,1,0
IDU008,21,-1,1,0
IDU008,22,343,1,0
IDU008,23,-1,1,0
IDU008,24,384,1,0
IDU008,25,-1,1,0
IDU008,26,324,1,0
IDU008,27,336,1,0
IDU008,28,340,1,0
IDU008,29,-1,1,0
IDU008,30,305,1,0
IDU008,31,282,1,0
IDU008,32,-1,1,0
IDU008,33,358,1,0
IDU008,34,344,1,0
IDU008,35,347,1,0
IDU008,36,344,1,0
IDU008,37,330,1,0
IDU008,38,319,1,0
IDU008,39,419,1,0
IDU008,40,-1,1,0
IDU008,41,305,1,0
IDU008,42,347,1,0
IDU008,43,390,1,0
IDU008,44,-1,1,0
IDU008,45,343,1,0
IDU008,46,332,1,0
IDU008,47,345,1,0
IDU008,48,339,1,0
IDU008,49,308,1,0
IDU008,50,-1,1,0
IDU008,51,319,1,0
IDU008,52,280,1,0
IDU008,53,361,1,0
IDU008,54,312,1,0
IDU008,55,360,1,0
IDU008,56,327,1,0
IDU008,57,341,1,0
IDU008,58,325,0,0
IDU008,59,413,1,0
IDU008,60,351,1,0
IDU008,61,366,1,0
IDU008,62,333,1,0
IDU008,63,-1,1,0
IDU008,64,333,1,0
IDU008,65,315,1,0
IDU008,66,445,1,0
IDU008,67,-1,1,0
IDU008,68,353,1,0
IDU008,69,348,1,0
IDU008,70,375,1,0
IDU008,71,354,1,0
IDU008,72,344,1,0
IDU008,73,387,1,0
IDU008,74,-1,1,0
IDU008,75,322,1,0
IDU008,76,341,1,0
IDU008,77,332,1,0
IDU008,1,1195,1,1
IDU008,2,1123,1,1
IDU008,3,1416,1,1
IDU008,4,924,1,1
IDU008,5,968,1,1
IDU008,6,1007,1,1
IDU008,7,861,1,1
IDU008,8,935,1,1
IDU008,9,902,1,1
IDU008,10,1063,1,1
IDU008,11,944,1,1
IDU008,12,969,1,1
IDU008,13,937,1,1
IDU008,14,806,1,1
IDU008,15,905,1,1
IDU008,16,1116,1,1
IDU008,17,833,1,1
IDU008,18,914,1,1
IDU008,19,778,1,1
IDU008,20,1010,1,1
IDU008,21,894,1,1
IDU008,22,797,1,1
IDU008,23,947,1,1
IDU008,24,1512,1,1
IDU008,1,500,-1,2
IDU008,1,1135,-1,4
IDU008,1,1635,-1,5
IDU008,2,800,-1,2
IDU008,2,568,-1,4
IDU008,2,1368,-1,5
IDU008,2,233,-1,3
IDU008,3,567,-1,2
IDU008,3,1001,-1,4
IDU008,3,1568,-1,5
IDU008,4,667,-1,2
IDU008,4,1234,-1,4
IDU008,4,1901,-1,5
IDU008,4,167,-1,3
IDU008,5,767,-1,2
IDU008,5,467,-1,4
IDU008,5,1234,-1,5
IDU008,5,267,-1,3
IDU008,6,634,-1,2
IDU008,6,1634,-1,4
IDU008,6,2268,-1,5
IDU008,6,300,-1,3
IDU008,7,601,-1,2
IDU008,7,2268,-1,4
IDU008,7,2869,-1,5
IDU008,7,167,-1,3
IDU008,8,834,-1,2
IDU008,8,1068,-1,4
IDU008,8,1902,-1,5
IDU008,8,200,-1,3
IDU008,9,934,-1,2
IDU008,9,1235,-1,4
IDU008,9,2169,-1,5
IDU008,9,200,-1,3
IDU008,10,733,-1,2
IDU008,10,1167,-1,4
IDU008,10,1900,-1,5
IDU008,10,233,-1,3
IDU008,11,534,-1,2
IDU008,11,1234,-1,4
IDU008,11,1768,-1,5
IDU008,12,800,-1,2
IDU008,12,867,-1,4
IDU008,12,1667,-1,5
IDU008,13,601,-1,2
IDU008,13,1067,-1,4
IDU008,13,1668,-1,5
IDU008,13,266,-1,3
IDU008,14,568,-1,2
IDU008,14,1801,-1,4
IDU008,14,2369,-1,5
IDU008,14,233,-1,3
IDU008,15,667,-1,2
IDU008,15,1301,-1,4
IDU008,15,1968,-1,5
IDU008,15,233,-1,3
IDU008,16,934,-1,2
IDU008,16,1234,-1,4
IDU008,16,2168,-1,5
IDU008,16,367,-1,3
IDU008,17,600,-1,2
IDU008,17,2201,-1,4
IDU008,17,2801,-1,5
IDU010,1,418,1,0
IDU010,2,-1,1,0
IDU010,3,335,1,0
IDU010,4,481,1,0
IDU010,5,369,1,0
IDU010,6,-1,1,0
IDU010,7,265,1,0
IDU010,8,381,1,0
IDU010,9,363,1,0
IDU010,10,330,1,0
IDU010,11,-1,1,0
IDU010,12,280,1,0
IDU010,13,346,1,0
IDU010,14,347,1,0
IDU010,15,304,1,0
IDU010,16,-1,1,0
IDU010,17,270,1,0
IDU010,18,361,1,0
IDU010,19,-1,1,0
IDU010,20,333,1,0
IDU010,21,308,1,0
IDU010,22,-1,1,0
IDU010,23,265,1,0
IDU010,24,344,1,0
IDU010,25,329,1,0
IDU010,26,-1,1,0
IDU010,27,233,1,0
IDU010,28,283,1,0
IDU010,29,321,1,0
IDU010,30,247,1,0
IDU010,31,291,1,0
IDU010,32,370,1,0
IDU010,33,325,1,0
IDU010,34,-1,1,0
IDU010,35,336,1,0
IDU010,36,257,1,0
IDU010,37,324,1,0
IDU010,38,293,1,0
IDU010,39,305,1,0
IDU010,40,279,1,0
IDU010,41,250,1,0
IDU010,42,292,1,0
IDU010,43,-1,1,0
IDU010,44,251,1,0
IDU010,45,230,0,0
IDU010,46,392,1,0
IDU010,47,-1,1,0
IDU010,48,265,1,0
IDU010,49,-1,1,0
IDU010,50,272,1,0
IDU010,51,319,1,0
IDU010,52,-1,1,0
IDU010,53,0,1,0
IDU010,54,449,1,0
IDU010,55,-1,1,0
IDU010,56,297,1,0
IDU010,57,323,1,0
IDU010,58,324,1,0
IDU010,59,319,1,0
IDU010,60,-1,1,0
IDU010,61,318,1,0
IDU010,62,-1,1,0
IDU010,63,291,1,0
IDU010,64,290,1,0
IDU010,65,311,1,0
IDU010,66,283,1,0
IDU010,67,316,1,0
IDU010,68,335,1,0
IDU010,69,321,1,0
IDU010,70,324,1,0
IDU010,71,-1,1,0
IDU010,72,272,1,0
IDU010,73,403,1,0
IDU010,74,279,1,0
IDU010,75,266,1,0
IDU010,76,255,1,0
IDU010,77,329,1,0
IDU010,1,814,1,1
IDU010,2,836,1,1
IDU010,3,741,1,1
IDU010,4,765,1,1
IDU010,5,1510,1,1
IDU010,6,750,1,1
IDU010,7,769,1,1
IDU010,8,673,1,1
IDU010,9,771,1,1
IDU010,10,717,1,1
IDU010,11,876,1,1
IDU010,12,805,1,1
IDU010,13,820,1,1
IDU010,14,814,1,1
IDU010,15,593,1,1
IDU010,16,489,1,1
IDU010,17,808,1,1
IDU010,18,702,1,1
IDU010,19,469,1,1
IDU010,20,935,1,1
IDU010,21,490,1,1
IDU010,22,588,1,1
IDU010,23,771,1,1
IDU010,24,641,1,1
IDU010,1,800,-1,2
IDU010,1,2369,-1,4
IDU010,1,3169,-1,5
IDU010,2,0,-1,2
IDU010,2,2202,-1,4
IDU010,2,2202,-1,5
IDU010,2,667,-1,3
IDU010,3,0,-1,2
IDU010,3,2435,-1,4
IDU010,3,2435,-1,5
IDU010,3,533,-1,3
IDU010,4,734,-1,2
IDU010,4,3136,-1,4
IDU010,4,3870,-1,5
IDU010,4,300,-1,3
IDU010,5,1067,-1,2
IDU010,5,2702,-1,4
IDU010,5,3769,-1,5
IDU010,5,467,-1,3
IDU010,6,734,-1,2
IDU010,6,3136,-1,4
IDU010,6,3870,-1,5
IDU010,6,533,-1,3
IDU010,7,667,-1,2
IDU010,7,3168,-1,4
IDU010,7,3835,-1,5
IDU010,8,934,-1,2
IDU010,8,2301,-1,4
IDU010,8,3235,-1,5
IDU010,8,200,-1,3
IDU010,9,734,-1,2
IDU010,9,2902,-1,4
IDU010,9,3636,-1,5
IDU010,9,234,-1,3
IDU010,10,800,-1,2
IDU010,10,2901,-1,4
IDU010,10,3701,-1,5
IDU010,10,434,-1,3
IDU010,11,534,-1,2
IDU010,11,2635,-1,4
IDU010,11,3169,-1,5
IDU010,11,201,-1,3
IDU010,12,801,-1,2
IDU010,12,3102,-1,4
IDU010,12,3903,-1,5
IDU010,13,1100,-1,2
IDU010,13,2501,-1,4
IDU010,13,3601,-1,5
IDU010,13,468,-1,3
IDU010,14,333,-1,2
IDU010,14,4236,-1,4
IDU010,14,4569,-1,5
IDU010,15,634,-1,2
IDU010,15,2636,-1,4
IDU010,15,3270,-1,5
IDU010,15,534,-1,3
IDU010,16,200,-1,2
IDU010,16,3936,-1,4
IDU010,16,4136,-1,5
IDU011,1,368,1,0
IDU011,2,388,1,0
IDU011,3,266,1,0
IDU011,4,297,1,0
IDU011,5,-1,1,0
IDU011,6,287,1,0
IDU011,7,483,0,0
IDU011,8,375,1,0
IDU011,9,-1,1,0
IDU011,10,290,1,0
IDU011,11,430,1,0
IDU011,12,392,1,0
IDU011,13,410,1,0
IDU011,14,-1,1,0
IDU011,15,395,1,0
IDU011,16,399,1,0
IDU011,17,365,1,0
IDU011,18,331,1,0
IDU011,19,-1,1,0
IDU011,20,269,1,0
IDU011,21,422,1,0
IDU011,22,-1,1,0
IDU011,23,281,1,0
IDU011,24,434,1,0
IDU011,25,347,1,0
IDU011,26,300,1,0
IDU011,27,410,1,0
IDU011,28,-1,1,0
IDU011,29,315,1,0
IDU011,30,303,1,0
IDU011,31,343,1,0
IDU011,32,276,1,0
IDU011,33,301,1,0
IDU011,34,258,1,0
IDU011,35,284,1,0
IDU011,36,351,1,0
IDU011,37,236,1,0
IDU011,38,236,1,0
IDU011,39,238,1,0
IDU011,40,315,1,0
IDU011,41,258,1,0
IDU011,42,-1,1,0
IDU011,43,304,1,0
IDU011,44,354,1,0
IDU011,45,265,1,0
IDU011,46,230,1,0
IDU011,47,288,1,0
IDU011,48,-1,1,0
IDU011,49,232,1,0
IDU011,50,311,1,0
IDU011,51,-1,1,0
IDU011,52,315,1,0
IDU011,53,322,1,0
IDU011,54,320,1,0
IDU011,55,-1,1,0
IDU011,56,276,1,0
IDU011,57,315,1,0
IDU011,58,332,1,0
IDU011,59,-1,1,0
IDU011,60,301,1,0
IDU011,61,376,1,0
IDU011,62,312,1,0
IDU011,63,-1,1,0
IDU011,64,216,1,0
IDU011,65,270,1,0
IDU011,66,-1,1,0
IDU011,67,266,1,0
IDU011,68,-1,1,0
IDU011,69,529,1,0
IDU011,70,-1,1,0
IDU011,71,351,1,0
IDU011,72,418,1,0
IDU011,73,-1,1,0
IDU011,74,438,1,0
IDU011,75,454,1,0
IDU011,76,382,1,0
IDU011,77,316,1,0
IDU011,1,900,1,1
IDU011,2,2281,1,1
IDU011,3,995,1,1
IDU011,4,1783,1,1
IDU011,5,1141,1,1
IDU011,6,893,1,1
IDU011,7,946,1,1
IDU011,8,919,1,1
IDU011,9,1120,1,1
IDU011,10,949,1,1
IDU011,11,1089,1,1
IDU011,12,1476,1,1
IDU011,13,1113,1,1
IDU011,14,765,1,1
IDU011,15,1190,1,1
IDU011,16,1263,1,1
IDU011,17,816,1,1
IDU011,18,1097,1,1
IDU011,19,901,1,1
IDU011,20,890,1,1
IDU011,21,1445,1,1
IDU011,22,1029,1,1
IDU011,23,961,1,1
IDU011,24,979,1,1
IDU011,1,801,-1,2
IDU011,1,267,-1,4
IDU011,1,1068,-1,5
IDU011,1,1167,-1,3
IDU011,2,568,-1,2
IDU011,2,767,-1,4
IDU011,2,1335,-1,5
IDU011,2,600,-1,3
IDU011,3,734,-1,2
IDU011,3,600,-1,4
IDU011,3,1334,-1,5
IDU011,3,767,-1,3
IDU011,4,667,-1,2
IDU011,4,434,-1,4
IDU011,4,1101,-1,5
IDU011,4,500,-1,3
IDU011,5,533,-1,2
IDU011,5,633,-1,4
IDU011,5,1166,-1,5
IDU011,5,634,-1,3
IDU011,6,700,-1,2
IDU011,6,367,-1,4
IDU011,6,1067,-1,5
IDU011,6,600,-1,3
IDU011,7,667,-1,2
IDU011,7,367,-1,4
IDU011,7,1034,-1,5
IDU011,7,234,-1,3
IDU011,8,634,-1,2
IDU011,8,401,-1,4
IDU011,8,1035,-1,5
IDU011,8,467,-1,3
IDU011,9,601,-1,2
IDU011,9,500,-1,4
IDU011,9,1101,-1,5
IDU011,9,533,-1,3
IDU011,10,567,-1,2
IDU011,10,668,-1,4
IDU011,10,1235,-1,5
IDU011,10,467,-1,3
IDU011,11,468,-1,2
IDU011,11,567,-1,4
IDU011,11,1035,-1,5
IDU011,12,734,-1,2
IDU011,12,434,-1,4
IDU011,12,1168,-1,5
IDU011,12,634,-1,3
IDU011,13,600,-1,2
IDU011,13,567,-1,4
IDU011,13,1167,-1,5
IDU011,13,534,-1,3
IDU011,14,567,-1,2
IDU011,14,600,-1,4
IDU011,14,1167,-1,5
IDU011,15,667,-1,2
IDU011,15,400,-1,4
IDU011,15,1067,-1,5
IDU011,15,667,-1,3
IDU011,16,634,-1,2
IDU011,16,334,-1,4
IDU011,16,968,-1,5
IDU011,16,767,-1,3
IDU011,17,667,-1,2
IDU011,17,834,-1,4
IDU011,17,1501,-1,5
IDU011,17,534,-1,3
IDU012,1,334,1,0
IDU012,2,342,1,0
IDU012,3,244,1,0
IDU012,4,274,1,0
IDU012,5,313,1,0
IDU012,6,265,1,0
IDU012,7,322,1,0
IDU012,8,240,1,0
IDU012,9,244,1,0
IDU012,10,241,1,0
IDU012,11,260,1,0
IDU012,12,231,1,0
IDU012,13,101,1,0
IDU012,14,204,1,0
IDU012,15,211,1,0
IDU012,16,195,0,0
IDU012,17,320,1,0
IDU012,18,271,1,0
IDU012,19,334,1,0
IDU012,20,261,0,0
IDU012,21,329,1,0
IDU012,22,-1,1,0
IDU012,23,357,1,0
IDU012,24,-1,1,0
IDU012,25,291,1,0
IDU012,26,400,1,0
IDU012,27,344,1,0
IDU012,28,-1,1,0
IDU012,29,333,1,0
IDU012,30,341,1,0
IDU012,31,360,1,0
IDU012,32,339,1,0
IDU012,33,-1,1,0
IDU012,34,353,1,0
IDU012,35,392,1,0
IDU012,36,-1,1,0
IDU012,37,283,1,0
IDU012,38,341,1,0
IDU012,39,326,1,0
IDU012,40,311,1,0
IDU012,41,312,1,0
IDU012,42,-1,1,0
IDU012,43,300,1,0
IDU012,44,263,1,0
IDU012,45,297,1,0
IDU012,46,-1,1,0
IDU012,47,303,1,0
IDU012,48,370,1,0
IDU012,49,270,1,0
IDU012,50,313,1,0
IDU012,51,-1,1,0
IDU012,52,263,1,0
IDU012,53,324,1,0
IDU012,54,-1,1,0
IDU012,55,298,1,0
IDU012,56,-1,1,0
IDU012,57,303,1,0
IDU012,58,327,1,0
IDU012,59,314,1,0
IDU012,60,-1,1,0
IDU012,61,308,1,0
IDU012,62,344,1,0
IDU012,63,-1,1,0
IDU012,64,341,1,0
IDU012,65,306,1,0
IDU012,66,337,1,0
IDU012,67,0,1,0
IDU012,68,413,1,0
IDU012,69,0,1,0
IDU012,70,-1,1,0
IDU012,71,267,1,0
IDU012,72,-1,1,0
IDU012,73,303,1,0
IDU012,74,301,1,0
IDU012,75,317,1,0
IDU012,76,-1,1,0
IDU012,77,291,1,0
IDU012,1,1365,1,1
IDU012,2,935,1,1
IDU012,3,1128,1,1
IDU012,4,1134,1,1
IDU012,5,1111,1,1
IDU012,6,875,1,1
IDU012,7,1216,1,1
IDU012,8,993,1,1
IDU012,9,919,1,1
IDU012,10,1126,1,1
IDU012,11,891,1,1
IDU012,12,999,1,1
IDU012,13,845,1,1
IDU012,14,720,1,1
IDU012,15,1161,1,1
IDU012,16,1003,1,1
IDU012,17,1039,1,1
IDU012,18,832,1,1
IDU012,19,635,1,1
IDU012,20,833,1,1
IDU012,21,750,1,1
IDU012,22,1485,1,1
IDU012,23,824,1,1
IDU012,24,817,1,1
IDU012,1,834,-1,2
IDU012,1,1567,-1,4
IDU012,1,2401,-1,5
IDU012,1,466,-1,3
IDU012,2,767,-1,2
IDU012,2,968,-1,4
IDU012,2,1735,-1,5
IDU012,2,500,-1,3
IDU012,3,300,-1,2
IDU012,3,867,-1,4
IDU012,3,1167,-1,5
IDU012,4,800,-1,2
IDU012,4,835,-1,4
IDU012,4,1635,-1,5
IDU012,4,567,-1,3
IDU012,5,967,-1,2
IDU012,5,934,-1,4
IDU012,5,1901,-1,5
IDU012,5,633,-1,3
IDU012,6,901,-1,2
IDU012,6,3035,-1,4
IDU012,6,3936,-1,5
IDU012,6,467,-1,3
IDU012,7,934,-1,2
IDU012,7,1234,-1,4
IDU012,7,2168,-1,5
IDU012,7,634,-1,3
IDU012,8,1034,-1,2
IDU012,8,1268,-1,4
IDU012,8,2302,-1,5
IDU012,8,801,-1,3
IDU012,9,700,-1,2
IDU012,9,2268,-1,4
IDU012,9,2968,-1,5
IDU012,9,468,-1,3
IDU012,10,835,-1,2
IDU012,10,900,-1,4
IDU012,10,1735,-1,5
IDU012,10,501,-1,3
IDU012,11,767,-1,2
IDU012,11,1501,-1,4
IDU012,11,2268,-1,5
IDU012,11,400,-1,3
IDU012,12,700,-1,2
IDU012,12,1768,-1,4
IDU012,12,2468,-1,5
IDU012,12,533,-1,3
IDU012,13,634,-1,2
IDU012,13,2835,-1,4
IDU012,13,3469,-1,5
IDU012,13,300,-1,3
IDU012,14,900,-1,2
IDU012,14,1835,-1,4
IDU012,14,2735,-1,5
IDU012,14,500,-1,3
IDU012,15,834,-1,2
IDU012,15,1767,-1,4
IDU012,15,2601,-1,5
IDU012,15,534,-1,3
IDU012,16,733,-1,2
IDU012,16,1968,-1,4
IDU012,16,2701,-1,5
IDU012,16,433,-1,3
IDU013,1,542,1,0
IDU013,2,-1,1,0
IDU013,3,396,1,0
IDU013,4,537,1,0
IDU013,5,367,1,0
IDU013,6,394,1,0
IDU013,7,377,1,0
IDU013,8,-1,1,0
IDU013,9,352,1,0
IDU013,10,492,1,0
IDU013,11,368,1,0
IDU013,12,391,1,0
IDU013,13,375,1,0
IDU013,14,345,1,0
IDU013,15,-1,1,0
IDU013,16,333,1,0
IDU013,17,315,1,0
IDU013,18,314,1,0
IDU013,19,-1,1,0
IDU013,20,436,1,0
IDU013,21,371,1,0
IDU013,22,-1,1,0
IDU013,23,412,1,0
IDU013,24,-1,1,0
IDU013,25,334,1,0
IDU013,26,386,1,0
IDU013,27,417,1,0
IDU013,28,459,1,0
IDU013,29,410,1,0
IDU013,30,360,1,0
IDU013,31,279,1,0
IDU013,32,347,1,0
IDU013,33,-1,1,0
IDU013,34,-1,0,0
IDU013,35,0,1,0
IDU013,36,565,1,0
IDU013,37,350,1,0
IDU013,38,325,1,0
IDU013,39,398,1,0
IDU013,40,278,1,0
IDU013,41,274,1,0
IDU013,42,313,1,0
IDU013,43,325,1,0
IDU013,44,307,1,0
IDU013,45,-1,1,0
IDU013,46,632,1,0
IDU013,47,520,1,0
IDU013,48,-1,1,0
IDU013,49,339,1,0
IDU013,50,387,1,0
IDU013,51,0,0,0
IDU013,52,424,1,0
IDU013,53,-1,1,0
IDU013,54,374,1,0
IDU013,55,370,1,0
IDU013,56,423,1,0
IDU013,57,347,1,0
IDU013,58,334,1,0
IDU013,59,-1,1,0
IDU013,60,373,1,0
IDU013,61,384,1,0
IDU013,62,275,1,0
IDU013,63,266,1,0
IDU013,64,-1,1,0
IDU013,65,385,1,0
IDU013,66,282,1,0
IDU013,67,372,1,0
IDU013,68,-1,1,0
IDU013,69,378,1,0
IDU013,70,339,1,0
IDU013,71,566,1,0
IDU013,72,-1,1,0
IDU013,73,336,1,0
IDU013,74,365,1,0
IDU013,75,-1,1,0
IDU013,76,479,1,0
IDU013,77,-1,1,0
IDU013,1,1634,1,1
IDU013,2,1250,1,1
IDU013,3,872,1,1
IDU013,4,947,1,1
IDU013,5,1186,1,1
IDU013,6,1257,1,1
IDU013,7,783,1,1
IDU013,8,867,1,1
IDU013,9,698,1,1
IDU013,10,917,1,1
IDU013,11,921,1,1
IDU013,12,1023,1,1
IDU013,13,1320,1,1
IDU013,14,1193,1,1
IDU013,15,1396,1,1
IDU013,16,1269,1,1
IDU013,17,1065,1,1
IDU013,18,884,1,1
IDU013,19,1564,1,1
IDU013,20,980,1,1
IDU013,21,860,1,1
IDU013,22,1532,1,1
IDU013,23,1352,1,1
IDU013,24,1615,1,1
IDU013,1,734,-1,2
IDU013,1,834,-1,4
IDU013,1,1568,-1,5
IDU013,1,367,-1,3
IDU013,2,668,-1,2
IDU013,2,2068,-1,4
IDU013,2,2736,-1,5
IDU013,2,234,-1,3
IDU013,3,300,-1,2
IDU013,3,1801,-1,4
IDU013,3,2101,-1,5
IDU013,4,834,-1,2
IDU013,4,1068,-1,4
IDU013,4,1902,-1,5
IDU013,4,567,-1,3
IDU013,5,601,-1,2
IDU013,5,2535,-1,4
IDU013,5,3136,-1,5
IDU013,6,667,-1,2
IDU013,6,1601,-1,4
IDU013,6,2268,-1,5
IDU013,7,801,-1,2
IDU013,7,1401,-1,4
IDU013,7,2202,-1,5
IDU013,8,234,-1,2
IDU013,8,801,-1,4
IDU013,8,1035,-1,5
IDU013,9,834,-1,2
IDU013,9,1368,-1,4
IDU013,9,2202,-1,5
IDU013,9,334,-1,3
IDU013,10,634,-1,2
IDU013,10,2202,-1,4
IDU013,10,2836,-1,5
IDU013,10,334,-1,3
IDU013,11,667,-1,2
IDU013,11,2669,-1,4
IDU013,11,3336,-1,5
IDU013,11,500,-1,3
IDU013,12,401,-1,2
IDU013,12,2735,-1,4
IDU013,12,3136,-1,5
IDU013,13,668,-1,2
IDU013,13,2769,-1,4
IDU013,13,3437,-1,5
IDU013,13,333,-1,3
IDU013,14,600,-1,2
IDU013,14,2635,-1,4
IDU013,14,3235,-1,5
IDU013,15,601,-1,2
IDU013,15,2302,-1,4
IDU013,15,2903,-1,5
IDU013,15,300,-1,3
IDU013,16,600,-1,2
IDU013,16,2369,-1,4
IDU013,16,2969,-1,5
IDU013,16,267,-1,3
IDU013,17,667,-1,2
IDU013,17,2168,-1,4
IDU013,17,2835,-1,5
IDU014,1,462,1,0
IDU014,2,488,1,0
IDU014,3,-1,1,0
IDU014,4,434,1,0
IDU014,5,478,1,0
IDU014,6,442,1,0
IDU014,7,454,1,0
IDU014,8,487,1,0
IDU014,9,-1,1,0
IDU014,10,324,1,0
IDU014,11,-1,1,0
IDU014,12,380,1,0
IDU014,13,-1,1,0
IDU014,14,384,1,0
IDU014,15,424,1,0
IDU014,16,386,1,0
IDU014,17,397,1,0
IDU014,18,454,1,0
IDU014,19,-1,1,0
IDU014,20,350,1,0
IDU014,21,397,1,0
IDU014,22,412,1,0
IDU014,23,412,1,0
IDU014,24,410,1,0
IDU014,25,399,1,0
IDU014,26,384,1,0
IDU014,27,426,1,0
IDU014,28,397,1,0
IDU014,29,437,1,0
IDU014,30,410,1,0
IDU014,31,379,1,0
IDU014,32,445,1,0
IDU014,33,-1,1,0
IDU014,34,457,1,0
IDU014,35,469,1,0
IDU014,36,323,1,0
IDU014,37,373,1,0
IDU014,38,-1,1,0
IDU014,39,348,1,0
IDU014,40,334,1,0
IDU014,41,-1,1,0
IDU014,42,339,1,0
IDU014,43,340,1,0
IDU014,44,319,1,0
IDU014,45,-1,1,0
IDU014,46,324,1,0
IDU014,47,337,1,0
IDU014,48,302,1,0
IDU014,49,362,1,0
IDU014,50,-1,1,0
IDU014,51,277,1,0
IDU014,52,299,1,0
IDU014,53,393,1,0
IDU014,54,343,1,0
IDU014,55,298,1,0
IDU014,56,298,1,0
IDU014,57,304,1,0
IDU014,58,-1,1,0
IDU014,59,294,1,0
IDU014,60,-1,1,0
IDU014,61,320,1,0
IDU014,62,362,1,0
IDU014,63,-1,1,0
IDU014,64,278,1,0
IDU014,65,-1,1,0
IDU014,66,278,1,0
IDU014,67,-1,1,0
IDU014,68,311,1,0
IDU014,69,498,1,0
IDU014,70,-1,1,0
IDU014,71,282,1,0
IDU014,72,292,1,0
IDU014,73,299,1,0
IDU014,74,-1,1,0
IDU014,75,326,1,0
IDU014,76,315,1,0
IDU014,77,317,1,0
IDU014,1,920,1,1
IDU014,2,1085,1,1
IDU014,3,1177,1,1
IDU014,4,967,1,1
IDU014,5,879,1,1
IDU014,6,656,1,1
IDU014,7,747,1,1
IDU014,8,779,1,1
IDU014,9,1138,1,1
IDU014,10,898,1,1
IDU014,11,854,1,1
IDU014,12,1079,1,1
IDU014,13,1039,1,1
IDU014,14,724,1,1
IDU014,15,711,1,1
IDU014,16,685,1,1
IDU014,17,660,1,1
IDU014,18,702,1,1
IDU014,19,636,1,1
IDU014,20,642,1,1
IDU014,21,707,1,1
IDU014,22,779,1,1
IDU014,23,751,1,1
IDU014,24,784,1,1
IDU014,1,767,-1,2
IDU014,1,3035,-1,4
IDU014,1,3802,-1,5
IDU014,1,333,-1,3
IDU014,2,600,-1,2
IDU014,2,2735,-1,4
IDU014,2,3335,-1,5
IDU014,2,567,-1,3
IDU014,3,934,-1,2
IDU014,3,2334,-1,4
IDU014,3,3268,-1,5
IDU014,3,467,-1,3
IDU014,4,601,-1,2
IDU014,4,2968,-1,4
IDU014,4,3569,-1,5
IDU014,4,167,-1,3
IDU014,5,667,-1,2
IDU014,5,2735,-1,4
IDU014,5,3402,-1,5
IDU014,5,533,-1,3
IDU014,6,633,-1,2
IDU014,6,2635,-1,4
IDU014,6,3268,-1,5
IDU014,7,1000,-1,2
IDU014,7,2868,-1,4
IDU014,7,3868,-1,5
IDU014,7,701,-1,3
IDU014,8,667,-1,2
IDU014,8,2502,-1,4
IDU014,8,3169,-1,5
IDU014,9,934,-1,2
IDU014,9,2702,-1,4
IDU014,9,3636,-1,5
IDU014,9,634,-1,3
IDU014,10,600,-1,2
IDU014,10,2902,-1,4
IDU014,10,3502,-1,5
IDU014,10,501,-1,3
IDU014,11,767,-1,2
IDU014,11,2502,-1,4
IDU014,11,3269,-1,5
IDU014,12,700,-1,2
IDU014,12,2736,-1,4
IDU014,12,3436,-1,5
IDU014,12,734,-1,3
IDU014,13,634,-1,2
IDU014,13,3036,-1,4
IDU014,13,3670,-1,5
IDU014,13,334,-1,3
IDU014,14,568,-1,2
IDU014,14,2635,-1,4
IDU014,14,3203,-1,5
IDU014,15,667,-1,2
IDU014,15,1434,-1,4
IDU014,15,2101,-1,5
IDU014,16,968,-1,2
IDU014,16,2235,-1,4
IDU014,16,3203,-1,5
IDU014,16,367,-1,3
IDU014,17,634,-1,2
IDU014,17,2469,-1,4
IDU014,17,3103,-1,5
IDU014,17,600,-1,3
IDU015,1,324,1,0
IDU015,2,-1,1,0
IDU015,3,295,1,0
IDU015,4,-1,1,0
IDU015,5,338,1,0
IDU015,6,373,1,0
IDU015,7,382,1,0
IDU015,8,357,1,0
IDU015,9,393,1,0
IDU015,10,543,1,0
IDU015,11,369,1,0
IDU015,12,385,1,0
IDU015,13,346,1,0
IDU015,14,329,1,0
IDU015,15,395,1,0
IDU015,16,-1,1,0
IDU015,17,380,1,0
IDU015,18,343,1,0
IDU015,19,-1,1,0
IDU015,20,320,1,0
IDU015,21,-1,1,0
IDU015,22,319,1,0
IDU015,23,302,1,0
IDU015,24,321,1,0
IDU015,25,-1,1,0
IDU015,26,382,1,0
IDU015,27,279,1,0
IDU015,28,373,1,0
IDU015,29,-1,1,0
IDU015,30,317,1,0
IDU015,31,-1,1,0
IDU015,32,370,1,0
IDU015,33,353,1,0
IDU015,34,292,1,0
IDU015,35,379,1,0
IDU015,36,-1,1,0
IDU015,37,395,1,0
IDU015,38,530,1,0
IDU015,39,-1,1,0
IDU015,40,380,1,0
IDU015,41,311,1,0
IDU015,42,325,1,0
IDU015,43,313,1,0
IDU015,44,342,1,0
IDU015,45,312,1,0
IDU015,46,303,1,0
IDU015,47,-1,1,0
IDU015,48,476,1,0
IDU015,49,304,1,0
IDU015,50,604,1,0
IDU015,51,-1,1,0
IDU015,52,384,1,0
IDU015,53,481,1,0
IDU015,54,293,1,0
IDU015,55,322,1,0
IDU015,56,-1,1,0
IDU015,57,316,1,0
IDU015,58,294,1,0
IDU015,59,301,1,0
IDU015,60,373,1,0
IDU015,61,-1,1,0
IDU015,62,271,1,0
IDU015,63,-1,1,0
IDU015,64,385,1,0
IDU015,65,378,1,0
IDU015,66,-1,1,0
IDU015,67,397,1,0
IDU015,68,328,1,0
IDU015,69,455,1,0
IDU015,70,-1,1,0
IDU015,71,354,1,0
IDU015,72,333,1,0
IDU015,73,320,1,0
IDU015,74,315,1,0
IDU015,75,308,1,0
IDU015,76,308,1,0
IDU015,77,285,1,0
IDU015,1,849,1,1
IDU015,2,727,1,1
IDU015,3,820,1,1
IDU015,4,734,1,1
IDU015,5,430,1,1
IDU015,6,833,1,1
IDU015,7,716,1,1
IDU015,8,809,1,1
IDU015,9,1022,1,1
IDU015,10,450,1,1
IDU015,11,690,1,1
IDU015,12,674,1,1
IDU015,13,852,1,1
IDU015,14,809,1,1
IDU015,15,617,1,1
IDU015,16,447,1,1
IDU015,17,1033,1,1
IDU015,18,585,1,1
IDU015,19,572,1,1
IDU015,20,667,1,1
IDU015,21,879,1,1
IDU015,22,690,1,1
IDU015,23,611,1,1
IDU015,24,865,1,1
IDU015,1,768,-1,2
IDU015,1,667,-1,4
IDU015,1,1435,-1,5
IDU015,1,333,-1,3
IDU015,2,967,-1,2
IDU015,2,300,-1,4
IDU015,2,1267,-1,5
IDU015,2,534,-1,3
IDU015,3,833,-1,2
IDU015,3,801,-1,4
IDU015,3,1634,-1,5
IDU015,3,634,-1,3
IDU015,4,701,-1,2
IDU015,4,1968,-1,4
IDU015,4,2669,-1,5
IDU015,5,834,-1,2
IDU015,5,601,-1,4
IDU015,5,1435,-1,5
IDU015,6,767,-1,2
IDU015,6,800,-1,4
IDU015,6,1567,-1,5
IDU015,6,500,-1,3
IDU015,7,600,-1,2
IDU015,8,600,-1,2
IDU015,8,401,-1,4
IDU015,8,1001,-1,5
IDU015,8,467,-1,3
IDU015,9,634,-1,2
IDU015,9,968,-1,4
IDU015,9,1602,-1,5
IDU015,9,600,-1,3
IDU015,10,801,-1,2
IDU015,10,1000,-1,4
IDU015,10,1801,-1,5
IDU015,10,467,-1,3
IDU015,11,634,-1,2
IDU015,11,467,-1,4
IDU015,11,1101,-1,5
IDU015,11,934,-1,3
IDU015,12,834,-1,2
IDU015,12,1034,-1,4
IDU015,12,1868,-1,5
IDU015,12,534,-1,3
IDU015,13,767,-1,2
IDU015,13,1701,-1,4
IDU015,13,2468,-1,5
IDU015,13,533,-1,3
IDU015,14,668,-1,2
IDU015,14,700,-1,4
IDU015,14,1368,-1,5
IDU015,14,567,-1,3
IDU015,15,700,-1,2
IDU015,15,1101,-1,4
IDU015,15,1801,-1,5
IDU015,15,534,-1,3
IDU015,16,667,-1,2
IDU015,16,1435,-1,4
IDU015,16,2102,-1,5
IDU015,16,501,-1,3
IDU015,17,734,-1,2
IDU015,17,601,-1,4
IDU015,17,1335,-1,5
IDU015,17,300,-1,3
IDU015,18,634,-1,2
IDU015,18,433,-1,4
IDU015,18,1067,-1,5
IDU015,18,267,-1,3
IDU016,1,321,1,0
IDU016,2,244,1,0
IDU016,3,219,0,0
IDU016,4,247,1,0
IDU016,5,245,1,0
IDU016,6,-1,1,0
IDU016,7,254,1,0
IDU016,8,-1,1,0
IDU016,9,284,1,0
IDU016,10,346,1,0
IDU016,11,292,1,0
IDU016,12,301,1,0
IDU016,13,292,1,0
IDU016,14,250,1,0
IDU016,15,220,1,0
IDU016,16,225,0,0
IDU016,17,240,1,0
IDU016,18,188,1,0
IDU016,19,319,1,0
IDU016,20,-1,1,0
IDU016,21,301,1,0
IDU016,22,351,1,0
IDU016,23,242,1,0
IDU016,24,302,1,0
IDU016,25,225,1,0
IDU016,26,203,0,0
IDU016,27,217,1,0
IDU016,28,-1,1,0
IDU016,29,0,1,0
IDU016,30,246,0,0
IDU016,31,268,1,0
IDU016,32,325,1,0
IDU016,33,297,1,0
IDU016,34,343,1,0
IDU016,35,277,1,0
IDU016,36,224,0,0
IDU016,37,255,1,0
IDU016,38,376,1,0
IDU016,39,292,1,0
IDU016,40,313,1,0
IDU016,41,290,1,0
IDU016,42,217,1,0
IDU016,43,-1,1,0
IDU016,44,255,1,0
IDU016,45,309,1,0
IDU016,46,-1,1,0
IDU016,47,286,1,0
IDU016,48,285,1,0
IDU016,49,-1,1,0
IDU016,50,277,1,0
IDU016,51,267,1,0
IDU016,52,353,1,0
IDU016,53,338,1,0
IDU016,54,253,1,0
IDU016,55,-1,1,0
IDU016,56,275,1,0
IDU016,57,217,1,0
IDU016,58,186,0,0
IDU016,59,276,1,0
IDU016,60,294,1,0
IDU016,61,229,1,0
IDU016,62,396,1,0
IDU016,63,305,1,0
IDU016,64,340,1,0
IDU016,65,278,1,0
IDU016,66,220,1,0
IDU016,67,320,1,0
IDU016,68,-1,1,0
IDU016,69,249,1,0
IDU016,70,233,1,0
IDU016,71,254,1,0
IDU016,72,230,1,0
IDU016,73,-1,1,0
IDU016,74,245,1,0
IDU016,75,293,1,0
IDU016,76,152,1,0
IDU016,77,-1,1,0
IDU016,1,664,1,1
IDU016,2,867,1,1
IDU016,3,515,1,1
IDU016,4,464,1,1
IDU016,5,495,1,1
IDU016,6,602,1,1
IDU016,7,819,1,1
IDU016,8,629,1,1
IDU016,9,542,1,1
IDU016,10,2169,1,1
IDU016,11,540,1,1
IDU016,12,540,1,1
IDU016,13,484,1,1
IDU016,14,564,1,1
IDU016,15,557,1,1
IDU016,16,426,1,1
IDU016,17,565,0,1
IDU016,18,574,1,1
IDU016,19,745,1,1
IDU016,20,662,1,1
IDU016,21,912,1,1
IDU016,22,521,1,1
IDU016,23,540,1,1
IDU016,24,450,1,1
IDU016,1,901,-1,2
IDU016,1,500,-1,4
IDU016,1,1401,-1,5
IDU016,1,534,-1,3
IDU016,2,934,-1,2
IDU016,2,2602,-1,4
IDU016,2,3536,-1,5
IDU016,2,666,-1,3
IDU016,3,867,-1,2
IDU016,3,2935,-1,4
IDU016,3,3802,-1,5
IDU016,3,667,-1,3
IDU016,4,768,-1,2
IDU016,4,3035,-1,4
IDU016,4,3803,-1,5
IDU016,5,800,-1,2
IDU016,5,2335,-1,4
IDU016,5,3135,-1,5
IDU016,5,467,-1,3
IDU016,6,700,-1,2
IDU016,6,2969,-1,4
IDU016,6,3669,-1,5
IDU016,7,700,-1,2
IDU016,7,2536,-1,4
IDU016,7,3236,-1,5
IDU016,7,534,-1,3
IDU016,8,900,-1,2
IDU016,8,2201,-1,4
IDU016,8,3101,-1,5
IDU016,8,434,-1,3
IDU016,9,1067,-1,2
IDU016,9,1868,-1,4
IDU016,9,2935,-1,5
IDU016,10,901,-1,2
IDU016,10,1968,-1,4
IDU016,10,2869,-1,5
IDU016,10,367,-1,3
IDU016,11,700,-1,2
IDU016,11,2068,-1,4
IDU016,11,2768,-1,5
IDU016,11,367,-1,3
IDU016,12,701,-1,2
IDU016,12,2502,-1,4
IDU016,12,3203,-1,5
IDU016,12,501,-1,3
IDU016,13,667,-1,2
IDU016,13,2435,-1,4
IDU016,13,3102,-1,5
IDU016,14,634,-1,2
IDU016,14,2235,-1,4
IDU016,14,2869,-1,5
IDU016,14,534,-1,3
IDU016,15,800,-1,2
IDU016,15,2168,-1,4
IDU016,15,2968,-1,5
IDU016,15,634,-1,3
IDU016,16,534,-1,2
IDU016,16,1935,-1,4
IDU016,16,2469,-1,5
IDU016,17,667,-1,2
IDU016,17,2302,-1,4
IDU016,17,2969,-1,5
IDU016,17,434,-1,3
IDU017,1,324,1,0
IDU017,2,-1,1,0
IDU017,3,279,1,0
IDU017,4,324,1,0
IDU017,5,353,1,0
IDU017,6,315,1,0
IDU017,7,-1,1,0
IDU017,8,242,1,0
IDU017,9,254,1,0
IDU017,10,269,1,0
IDU017,11,345,1,0
IDU017,12,251,1,0
IDU017,13,272,1,0
IDU017,14,249,1,0
IDU017,15,265,1,0
IDU017,16,-1,1,0
IDU017,17,261,1,0
IDU017,18,227,1,0
IDU017,19,242,1,0
IDU017,20,-1,1,0
IDU017,21,202,1,0
IDU017,22,235,1,0
IDU017,23,241,1,0
IDU017,24,-1,1,0
IDU017,25,263,1,0
IDU017,26,258,1,0
IDU017,27,264,1,0
IDU017,28,269,1,0
IDU017,29,-1,1,0
IDU017,30,204,1,0
IDU017,31,246,1,0
IDU017,32,257,1,0
IDU017,33,274,1,0
IDU017,34,269,1,0
IDU017,35,266,1,0
IDU017,36,-1,1,0
IDU017,37,284,1,0
IDU017,38,260,0,0
IDU017,39,444,1,0
IDU017,40,254,1,0
IDU017,41,232,1,0
IDU017,42,245,1,0
IDU017,43,251,1,0
IDU017,44,258,1,0
IDU017,45,-1,1,0
IDU017,46,264,1,0
IDU017,47,229,1,0
IDU017,48,302,1,0
IDU017,49,-1,1,0
IDU017,50,307,1,0
IDU017,51,281,1,0
IDU017,52,274,1,0
IDU017,53,284,1,0
IDU017,54,-1,1,0
IDU017,55,233,1,0
IDU017,56,202,1,0
IDU017,57,266,0,0
IDU017,58,282,1,0
IDU017,59,-1,1,0
IDU017,60,350,1,0
IDU017,61,272,1,0
IDU017,62,272,1,0
IDU017,63,323,1,0
IDU017,64,354,1,0
IDU017,65,345,1,0
IDU017,66,304,1,0
IDU017,67,-1,1,0
IDU017,68,259,1,0
IDU017,69,279,1,0
IDU017,70,273,1,0
IDU017,71,-1,1,0
IDU017,72,248,1,0
IDU017,73,-1,1,0
IDU017,74,298,1,0
IDU017,75,242,1,0
IDU017,76,-1,1,0
IDU017,77,242,1,0
IDU017,1,831,0,1
IDU017,2,929,1,1
IDU017,3,757,1,1
IDU017,4,874,1,1
IDU017,5,1229,1,1
IDU017,6,942,1,1
IDU017,7,486,1,1
IDU017,8,479,1,1
IDU017,9,591,1,1
IDU017,10,609,1,1
IDU017,11,595,0,1
IDU017,12,604,1,1
IDU017,13,647,1,1
IDU017,14,406,1,1
IDU017,15,530,1,1
IDU017,16,582,1,1
IDU017,17,777,1,1
IDU017,18,787,1,1
IDU017,19,769,1,1
IDU017,20,569,1,1
IDU017,21,568,1,1
IDU017,22,767,1,1
IDU017,23,551,1,1
IDU017,24,552,1,1
IDU017,1,601,-1,2
IDU017,1,834,-1,4
IDU017,1,1435,-1,5
IDU017,1,334,-1,3
IDU017,2,834,-1,2
IDU017,2,233,-1,4
IDU017,2,1067,-1,5
IDU017,2,267,-1,3
IDU017,3,567,-1,2
IDU017,3,1168,-1,4
IDU017,3,1735,-1,5
IDU017,3,333,-1,3
IDU017,4,601,-1,2
IDU017,4,801,-1,4
IDU017,4,1402,-1,5
IDU017,5,600,-1,2
IDU017,5,834,-1,4
IDU017,5,1434,-1,5
IDU017,5,600,-1,3
IDU017,6,534,-1,2
IDU017,6,1034,-1,4
IDU017,6,1568,-1,5
IDU017,7,634,-1,2
IDU017,7,400,-1,4
IDU017,7,1034,-1,5
IDU017,7,400,-1,3
IDU017,8,567,-1,2
IDU017,8,734,-1,4
IDU017,8,1301,-1,5
IDU017,8,333,-1,3
IDU017,9,634,-1,2
IDU017,9,467,-1,4
IDU017,9,1101,-1,5
IDU017,9,333,-1,3
IDU017,10,667,-1,2
IDU017,10,500,-1,4
IDU017,10,1167,-1,5
IDU017,10,334,-1,3
IDU017,11,166,-1,2
IDU017,11,400,-1,4
IDU017,11,566,-1,5
IDU017,12,601,-1,2
IDU017,12,400,-1,4
IDU017,12,1001,-1,5
IDU017,12,434,-1,3
IDU017,13,634,-1,2
IDU017,13,334,-1,4
IDU017,13,968,-1,5
IDU017,14,667,-1,2
IDU017,14,401,-1,4
IDU017,14,1068,-1,5
IDU017,14,500,-1,3
IDU017,15,633,-1,2
IDU017,15,433,-1,4
IDU017,15,1066,-1,5
IDU017,15,367,-1,3
IDU017,16,667,-1,2
IDU017,16,667,-1,4
IDU017,16,1334,-1,5
IDU017,17,534,-1,2
IDU017,17,434,-1,4
IDU017,17,968,-1,5
IDU018,1,349,1,0
IDU018,2,357,1,0
IDU018,3,388,1,0
IDU018,4,289,1,0
IDU018,5,343,1,0
IDU018,6,416,1,0
IDU018,7,314,1,0
IDU018,8,316,1,0
IDU018,9,355,1,0
IDU018,10,327,1,0
IDU018,11,302,1,0
IDU018,12,294,1,0
IDU018,13,319,1,0
IDU018,14,307,1,0
IDU018,15,299,1,0
IDU018,16,311,1,0
IDU018,17,-1,1,0
IDU018,18,-1,0,0
IDU018,19,368,1,0
IDU018,20,342,1,0
IDU018,21,334,1,0
IDU018,22,321,1,0
IDU018,23,311,1,0
IDU018,24,-1,1,0
IDU018,25,339,1,0
IDU018,26,333,0,0
IDU018,27,447,1,0
IDU018,28,368,1,0
IDU018,29,339,1,0
IDU018,30,372,1,0
IDU018,31,-1,1,0
IDU018,32,356,1,0
IDU018,33,299,1,0
IDU018,34,349,1,0
IDU018,35,-1,1,0
IDU018,36,335,1,0
IDU018,37,-1,1,0
IDU018,38,387,1,0
IDU018,39,328,1,0
IDU018,40,315,1,0
IDU018,41,319,1,0
IDU018,42,326,1,0
IDU018,43,-1,1,0
IDU018,44,342,1,0
IDU018,45,-1,1,0
IDU018,46,337,1,0
IDU018,47,-1,1,0
IDU018,48,337,1,0
IDU018,49,410,1,0
IDU018,50,313,1,0
IDU018,51,-1,1,0
IDU018,52,337,1,0
IDU018,53,322,1,0
IDU018,54,-1,1,0
IDU018,55,373,1,0
IDU018,56,312,1,0
IDU018,57,317,1,0
IDU018,58,-1,1,0
IDU018,59,384,1,0
IDU018,60,384,1,0
IDU018,61,305,1,0
IDU018,62,346,1,0
IDU018,63,322,1,0
IDU018,64,-1,1,0
IDU018,65,334,1,0
IDU018,66,355,1,0
IDU018,67,340,1,0
IDU018,68,313,1,0
IDU018,69,-1,1,0
IDU018,70,363,1,0
IDU018,71,-1,1,0
IDU018,72,306,1,0
IDU018,73,-1,1,0
IDU018,74,320,1,0
IDU018,75,364,1,0
IDU018,76,-1,1,0
IDU018,77,294,1,0
IDU018,1,906,1,1
IDU018,2,954,1,1
IDU018,3,612,1,1
IDU018,4,719,1,1
IDU018,5,855,1,1
IDU018,6,893,1,1
IDU018,7,801,1,1
IDU018,8,825,1,1
IDU018,9,863,1,1
IDU018,10,825,1,1
IDU018,11,873,1,1
IDU018,12,905,1,1
IDU018,13,966,1,1
IDU018,14,1923,1,1
IDU018,15,1270,1,1
IDU018,16,952,1,1
IDU018,17,773,1,1
IDU018,18,795,1,1
IDU018,19,801,1,1
IDU018,20,795,1,1
IDU018,21,837,1,1
IDU018,22,874,1,1
IDU018,23,746,1,1
IDU018,24,677,1,1
IDU018,1,1001,-1,2
IDU018,1,3235,-1,4
IDU018,1,4236,-1,5
IDU018,1,968,-1,3
IDU018,2,900,-1,2
IDU018,2,2735,-1,4
IDU018,2,3635,-1,5
IDU018,2,667,0,6
IDU018,2,667,-1,3
IDU018,3,934,-1,2
IDU018,3,3335,-1,4
IDU018,3,4269,-1,5
IDU018,3,300,-1,3
IDU018,4,901,-1,2
IDU018,4,3136,-1,4
IDU018,4,4037,-1,5
IDU018,4,567,-1,3
IDU018,5,800,-1,2
IDU018,5,3169,-1,4
IDU018,5,3969,-1,5
IDU018,6,934,-1,2
IDU018,6,2435,-1,4
IDU018,6,3369,-1,5
IDU018,6,567,-1,3
IDU018,7,767,-1,2
IDU018,7,2869,-1,4
IDU018,7,3636,-1,5
IDU018,7,700,-1,3
IDU018,8,934,-1,2
IDU018,8,2802,-1,4
IDU018,8,3736,-1,5
IDU018,8,567,-1,3
IDU018,9,734,-1,2
IDU018,9,2768,-1,4
IDU018,9,3502,-1,5
IDU018,9,701,-1,3
IDU018,10,801,-1,2
IDU018,10,3136,-1,4
IDU018,10,3937,-1,5
IDU018,11,967,-1,2
IDU018,11,3102,-1,4
IDU018,11,4069,-1,5
IDU018,11,667,-1,3
IDU018,12,634,-1,2
IDU018,12,3169,-1,4
IDU018,12,3803,-1,5
IDU018,13,834,-1,2
IDU018,13,3070,-1,4
IDU018,13,3904,-1,5
IDU018,14,900,-1,2
IDU018,14,2868,-1,4
IDU018,14,3768,-1,5
IDU018,14,634,-1,3
IDU018,15,867,-1,2
IDU018,15,2968,-1,4
IDU018,15,3835,-1,5
IDU018,15,434,-1,3
IDU018,16,868,-1,2
IDU018,16,2902,-1,4
IDU018,16,3770,-1,5
IDU018,16,300,-1,3
IDU018,17,767,-1,2
IDU018,17,3102,-1,4
IDU018,17,3869,-1,5
IDU019,1,446,1,0
IDU019,2,-1,1,0
IDU019,3,277,1,0
IDU019,4,437,1,0
IDU019,5,-1,1,0
IDU019,6,341,1,0
IDU019,7,345,1,0
IDU019,8,-1,1,0
IDU019,9,270,1,0
IDU019,10,344,1,0
IDU019,11,345,1,0
IDU019,12,387,1,0
IDU019,13,-1,1,0
IDU019,14,295,1,0
IDU019,15,393,1,0
IDU019,16,328,1,0
IDU019,17,354,1,0
IDU019,18,370,1,0
IDU019,19,-1,1,0
IDU019,20,0,1,0
IDU019,21,-1,0,0
IDU019,22,0,1,0
IDU019,23,644,1,0
IDU019,24,466,1,0
IDU019,25,528,1,0
IDU019,26,443,1,0
IDU019,27,-1,1,0
IDU019,28,308,1,0
IDU019,29,362,1,0
IDU019,30,-1,1,0
IDU019,31,271,1,0
IDU019,32,377,1,0
IDU019,33,370,1,0
IDU019,34,359,1,0
IDU019,35,387,1,0
IDU019,36,372,1,0
IDU019,37,351,1,0
IDU019,38,366,1,0
IDU019,39,348,1,0
IDU019,40,344,1,0
IDU019,41,343,1,0
IDU019,42,-1,1,0
IDU019,43,305,1,0
IDU019,44,381,1,0
IDU019,45,-1,1,0
IDU019,46,266,1,0
IDU019,47,315,1,0
IDU019,48,326,1,0
IDU019,49,-1,1,0
IDU019,50,288,1,0
IDU019,51,322,1,0
IDU019,52,-1,1,0
IDU019,53,264,1,0
IDU019,54,414,1,0
IDU019,55,405,1,0
IDU019,56,-1,1,0
IDU019,57,294,1,0
IDU019,58,-1,1,0
IDU019,59,303,1,0
IDU019,60,-1,1,0
IDU019,61,302,1,0
IDU019,62,623,1,0
IDU019,63,-1,1,0
IDU019,64,363,1,0
IDU019,65,349,1,0
IDU019,66,375,1,0
IDU019,67,-1,1,0
IDU019,68,281,1,0
IDU019,69,339,1,0
IDU019,70,362,1,0
IDU019,71,376,1,0
IDU019,72,398,1,0
IDU019,73,369,1,0
IDU019,74,364,1,0
IDU019,75,-1,1,0
IDU019,76,337,1,0
IDU019,77,310,1,0
IDU019,1,1050,1,1
IDU019,2,883,1,1
IDU019,3,973,1,1
IDU019,4,1001,1,1
IDU019,5,1303,1,1
IDU019,6,1091,1,1
IDU019,7,870,1,1
IDU019,8,1028,1,1
IDU019,9,798,1,1
IDU019,10,827,1,1
IDU019,11,656,1,1
IDU019,12,752,1,1
IDU019,13,616,1,1
IDU019,14,655,1,1
IDU019,15,679,1,1
IDU019,16,841,1,1
IDU019,17,711,1,1
IDU019,18,904,1,1
IDU019,19,750,1,1
IDU019,20,772,0,1
IDU019,21,1646,1,1
IDU019,22,1260,1,1
IDU019,23,1023,1,1
IDU019,24,802,1,1
IDU019,1,767,-1,2
IDU019,1,1368,-1,4
IDU019,1,2135,-1,5
IDU019,2,767,-1,2
IDU019,2,1768,-1,4
IDU019,2,2535,-1,5
IDU019,3,934,-1,2
IDU019,3,1701,-1,4
IDU019,3,2635,-1,5
IDU019,4,1035,-1,2
IDU019,4,2068,-1,4
IDU019,4,3103,-1,5
IDU019,4,633,-1,3
IDU019,5,633,-1,2
IDU019,5,2301,-1,4
IDU019,5,2934,-1,5
IDU019,5,567,-1,3
IDU019,6,367,-1,2
IDU019,6,1001,-1,4
IDU019,6,1368,-1,5
IDU019,7,0,-1,2
IDU019,8,1034,-1,2
IDU019,8,1667,-1,4
IDU019,8,2701,-1,5
IDU019,8,834,-1,3
IDU019,9,668,-1,2
IDU019,9,2268,-1,4
IDU019,9,2936,-1,5
IDU019,9,467,-1,3
IDU019,10,901,-1,2
IDU019,10,2068,-1,4
IDU019,10,2969,-1,5
IDU019,10,567,-1,3
IDU019,11,767,-1,2
IDU019,11,1834,-1,4
IDU019,11,2601,-1,5
IDU019,11,333,-1,3
IDU019,12,233,-1,2
IDU019,12,1801,-1,4
IDU019,12,2034,-1,5
IDU019,13,667,-1,2
IDU019,13,1534,-1,4
IDU019,13,2201,-1,5
IDU019,14,801,-1,2
IDU019,14,1667,-1,4
IDU019,14,2468,-1,5
IDU019,14,534,-1,3
IDU019,15,1067,-1,2
IDU019,15,1901,-1,4
IDU019,15,2968,-1,5
IDU019,15,567,-1,3
IDU019,16,901,-1,2
IDU019,16,1735,-1,4
IDU019,16,2636,-1,5
IDU019,16,401,-1,3
IDU019,17,967,-1,2
IDU019,17,1935,-1,4
IDU019,17,2902,-1,5
IDU019,17,566,-1,3
IDU019,18,733,-1,2
IDU019,18,2435,-1,4
IDU019,18,3168,-1,5
IDU019,18,434,-1,3
IDU020,1,809,1,0
IDU020,2,362,1,0
IDU020,3,-1,1,0
IDU020,4,344,1,0
IDU020,5,377,1,0
IDU020,6,-1,1,0
IDU020,7,401,1,0
IDU020,8,415,1,0
IDU020,9,437,1,0
IDU020,10,333,1,0
IDU020,11,-1,1,0
IDU020,12,323,1,0
IDU020,13,-1,1,0
IDU020,14,308,1,0
IDU020,15,372,1,0
IDU020,16,327,1,0
IDU020,17,400,1,0
IDU020,18,-1,1,0
IDU020,19,325,1,0
IDU020,20,331,1,0
IDU020,21,326,1,0
IDU020,22,-1,1,0
IDU020,23,272,1,0
IDU020,24,-1,1,0
IDU020,25,243,1,0
IDU020,26,341,1,0
IDU020,27,-1,1,0
IDU020,28,272,1,0
IDU020,29,304,1,0
IDU020,30,349,1,0
IDU020,31,314,1,0
IDU020,32,294,1,0
IDU020,33,306,1,0
IDU020,34,315,1,0
IDU020,35,294,1,0
IDU020,36,353,1,0
IDU020,37,320,1,0
IDU020,38,340,1,0
IDU020,39,-1,1,0
IDU020,40,271,1,0
IDU020,41,309,1,0
IDU020,42,301,1,0
IDU020,43,292,1,0
IDU020,44,299,1,0
IDU020,45,295,1,0
IDU020,46,326,1,0
IDU020,47,277,1,0
IDU020,48,-1,1,0
IDU020,49,258,1,0
IDU020,50,275,1,0
IDU020,51,282,1,0
IDU020,52,289,1,0
IDU020,53,318,1,0
IDU020,54,280,1,0
IDU020,55,339,1,0
IDU020,56,-1,1,0
IDU020,57,163,1,0
IDU020,58,-1,1,0
IDU020,59,272,1,0
IDU020,60,289,1,0
IDU020,61,-1,1,0
IDU020,62,400,1,0
IDU020,63,256,1,0
IDU020,64,277,1,0
IDU020,65,-1,1,0
IDU020,66,482,1,0
IDU020,67,-1,1,0
IDU020,68,271,1,0
IDU020,69,282,1,0
IDU020,70,270,1,0
IDU020,71,270,1,0
IDU020,72,306,1,0
IDU020,73,327,1,0
IDU020,74,325,1,0
IDU020,75,-1,1,0
IDU020,76,251,1,0
IDU020,77,-1,1,0
IDU020,1,1459,1,1
IDU020,2,1059,1,1
IDU020,3,1004,1,1
IDU020,4,932,1,1
IDU020,5,1221,1,1
IDU020,6,1185,1,1
IDU020,7,1101,1,1
IDU020,8,1097,1,1
IDU020,9,977,1,1
IDU020,10,1023,1,1
IDU020,11,1293,1,1
IDU020,12,697,1,1
IDU020,13,664,1,1
IDU020,14,1148,1,1
IDU020,15,949,1,1
IDU020,16,1002,1,1
IDU020,17,921,1,1
IDU020,18,900,1,1
IDU020,19,974,1,1
IDU020,20,983,1,1
IDU020,21,724,1,1
IDU020,22,884,1,1
IDU020,23,1230,1,1
IDU020,24,674,1,1
IDU020,1,734,-1,2
IDU020,1,901,-1,4
IDU020,1,1635,-1,5
IDU020,1,967,0,6
IDU020,1,1068,-1,3
IDU020,2,733,-1,2
IDU020,2,1534,-1,4
IDU020,2,2267,-1,5
IDU020,2,967,-1,3
IDU020,3,467,-1,2
IDU020,3,1368,-1,4
IDU020,3,1835,-1,5
IDU020,3,767,-1,3
IDU020,4,667,-1,2
IDU020,4,1701,-1,4
IDU020,4,2368,-1,5
IDU020,5,600,-1,2
IDU020,5,1735,-1,4
IDU020,5,2335,-1,5
IDU020,5,634,-1,3
IDU020,6,667,-1,2
IDU020,6,1534,-1,4
IDU020,6,2201,-1,5
IDU020,6,167,-1,3
IDU020,7,667,-1,2
IDU020,7,3069,-1,4
IDU020,7,3736,-1,5
IDU020,8,667,-1,2
IDU020,8,2069,-1,4
IDU020,8,2736,-1,5
IDU020,9,968,-1,2
IDU020,9,1868,-1,4
IDU020,9,2836,-1,5
IDU020,10,968,-1,2
IDU020,10,1434,-1,4
IDU020,10,2402,-1,5
IDU020,11,0,-1,2
IDU020,11,3303,-1,4
IDU020,11,3303,-1,5
IDU020,12,967,-1,2
IDU020,12,1168,-1,4
IDU020,12,2135,-1,5
IDU020,12,967,-1,3
IDU020,13,934,-1,2
IDU020,13,967,-1,4
IDU020,13,1901,-1,5
IDU020,13,567,-1,3
IDU020,14,968,-1,2
IDU020,14,700,-1,4
IDU020,14,1668,-1,5
IDU020,14,733,-1,3
IDU020,15,867,-1,2
IDU020,15,1701,-1,4
IDU020,15,2568,-1,5
IDU020,15,466,-1,3
IDU020,16,967,-1,2
IDU020,16,1100,-1,4
IDU020,16,2067,-1,5
IDU020,16,1268,-1,3
IDU020,17,767,-1,2
IDU020,17,1434,-1,4
IDU020,17,2201,-1,5
IDU020,17,800,-1,3
IDU021,1,403,1,0
IDU021,2,332,1,0
IDU021,3,428,1,0
IDU021,4,436,1,0
IDU021,5,550,1,0
IDU021,6,423,1,0
IDU021,7,432,1,0
IDU021,8,404,1,0
IDU021,9,466,1,0
IDU021,10,-1,1,0
IDU021,11,482,1,0
IDU021,12,395,1,0
IDU021,13,468,1,0
IDU021,14,418,1,0
IDU021,15,-1,1,0
IDU021,16,402,1,0
IDU021,17,482,1,0
IDU021,18,440,1,0
IDU021,19,340,1,0
IDU021,20,-1,1,0
IDU021,21,401,1,0
IDU021,22,-1,1,0
IDU021,23,424,1,0
IDU021,24,-1,1,0
IDU021,25,433,1,0
IDU021,26,477,1,0
IDU021,27,393,1,0
IDU021,28,406,1,0
IDU021,29,-1,1,0
IDU021,30,317,1,0
IDU021,31,-1,1,0
IDU021,32,355,1,0
IDU021,33,-1,1,0
IDU021,34,365,1,0
IDU021,35,403,1,0
IDU021,36,383,1,0
IDU021,37,361,1,0
IDU021,38,404,1,0
IDU021,39,397,1,0
IDU021,40,410,1,0
IDU021,41,446,1,0
IDU021,42,-1,1,0
IDU021,43,458,1,0
IDU021,44,396,1,0
IDU021,45,435,1,0
IDU021,46,419,1,0
IDU021,47,496,1,0
IDU021,48,549,1,0
IDU021,49,-1,1,0
IDU021,50,361,1,0
IDU021,51,446,1,0
IDU021,52,625,1,0
IDU021,53,454,1,0
IDU021,54,-1,1,0
IDU021,55,438,1,0
IDU021,56,386,1,0
IDU021,57,-1,1,0
IDU021,58,401,1,0
IDU021,59,369,1,0
IDU021,60,364,1,0
IDU021,61,365,1,0
IDU021,62,389,1,0
IDU021,63,-1,1,0
IDU021,64,350,1,0
IDU021,65,-1,1,0
IDU021,66,380,1,0
IDU021,67,-1,1,0
IDU021,68,420,1,0
IDU021,69,413,1,0
IDU021,70,390,1,0
IDU021,71,381,1,0
IDU021,72,372,1,0
IDU021,73,389,1,0
IDU021,74,-1,1,0
IDU021,75,495,1,0
IDU021,76,337,1,0
IDU021,77,-1,1,0
IDU021,1,1265,1,1
IDU021,2,978,1,1
IDU021,3,1041,1,1
IDU021,4,1204,1,1
IDU021,5,1225,1,1
IDU021,6,1163,1,1
IDU021,7,788,1,1
IDU021,8,988,1,1
IDU021,9,1118,1,1
IDU021,10,1415,1,1
IDU021,11,1087,1,1
IDU021,12,1001,1,1
IDU021,13,870,1,1
IDU021,14,902,1,1
IDU021,15,1023,1,1
IDU021,16,880,1,1
IDU021,17,1118,1,1
IDU021,18,1115,1,1
IDU021,19,878,1,1
IDU021,20,813,1,1
IDU021,21,1206,1,1
IDU021,22,786,1,1
IDU021,23,888,1,1
IDU021,24,803,1,1
IDU021,1,734,-1,2
IDU021,1,867,-1,4
IDU021,1,1601,-1,5
IDU021,1,267,-1,3
IDU021,2,367,-1,2
IDU021,2,2135,-1,4
IDU021,2,2502,-1,5
IDU021,3,734,-1,2
IDU021,3,867,-1,4
IDU021,3,1601,-1,5
IDU021,3,534,-1,3
IDU021,4,800,-1,2
IDU021,4,867,-1,4
IDU021,4,1667,-1,5
IDU021,4,266,-1,3
IDU021,5,768,-1,2
IDU021,5,667,-1,4
IDU021,5,1435,-1,5
IDU021,6,734,-1,2
IDU021,6,900,-1,4
IDU021,6,1634,-1,5
IDU021,6,534,-1,3
IDU021,7,134,-1,2
IDU021,7,3336,-1,4
IDU021,7,3470,-1,5
IDU021,8,1134,-1,2
IDU021,8,367,-1,4
IDU021,8,1501,-1,5
IDU021,8,567,-1,3
IDU021,9,667,-1,2
IDU021,9,1302,-1,4
IDU021,9,1969,-1,5
IDU021,10,700,-1,2
IDU021,10,1834,-1,4
IDU021,10,2534,-1,5
IDU021,11,801,-1,2
IDU021,11,267,-1,4
IDU021,11,1068,-1,5
IDU021,12,700,-1,2
IDU021,12,267,-1,4
IDU021,12,967,-1,5
IDU021,12,334,-1,3
IDU021,13,600,-1,2
IDU021,13,834,-1,4
IDU021,13,1434,-1,5
IDU021,14,667,-1,2
IDU021,14,767,-1,4
IDU021,14,1434,-1,5
IDU021,14,234,-1,3
IDU021,15,701,-1,2
IDU021,15,433,-1,4
IDU021,15,1134,-1,5
IDU021,15,500,-1,3
IDU021,16,601,-1,2
IDU021,16,400,-1,4
IDU021,16,1001,-1,5
IDU021,16,434,-1,3
IDU021,17,801,-1,2
IDU021,17,734,-1,4
IDU021,17,1535,-1,5
IDU021,17,467,-1,3
IDU022,1,378,1,0
IDU022,2,437,1,0
IDU022,3,397,1,0
IDU022,4,-1,1,0
IDU022,5,343,1,0
IDU022,6,374,1,0
IDU022,7,-1,1,0
IDU022,8,341,1,0
IDU022,9,376,1,0
IDU022,10,417,1,0
IDU022,11,416,1,0
IDU022,12,410,1,0
IDU022,13,-1,1,0
IDU022,14,415,1,0
IDU022,15,-1,1,0
IDU022,16,303,1,0
IDU022,17,449,1,0
IDU022,18,350,1,0
IDU022,19,358,1,0
IDU022,20,308,1,0
IDU022,21,365,1,0
IDU022,22,388,1,0
IDU022,23,-1,1,0
IDU022,24,456,1,0
IDU022,25,391,1,0
IDU022,26,411,1,0
IDU022,27,327,1,0
IDU022,28,444,1,0
IDU022,29,342,1,0
IDU022,30,384,1,0
IDU022,31,365,1,0
IDU022,32,-1,1,0
IDU022,33,359,1,0
IDU022,34,439,1,0
IDU022,35,343,1,0
IDU022,36,319,1,0
IDU022,37,363,1,0
IDU022,38,314,1,0
IDU022,39,-1,1,0
IDU022,40,365,1,0
IDU022,41,-1,1,0
IDU022,42,321,1,0
IDU022,43,363,1,0
IDU022,44,342,1,0
IDU022,45,368,1,0
IDU022,46,302,1,0
IDU022,47,-1,1,0
IDU022,48,317,1,0
IDU022,49,-1,1,0
IDU022,50,284,1,0
IDU022,51,-1,1,0
IDU022,52,320,1,0
IDU022,53,407,1,0
IDU022,54,378,1,0
IDU022,55,-1,1,0
IDU022,56,327,1,0
IDU022,57,346,1,0
IDU022,58,304,1,0
IDU022,59,-1,1,0
IDU022,60,375,1,0
IDU022,61,-1,1,0
IDU022,62,312,1,0
IDU022,63,412,1,0
IDU022,64,363,1,0
IDU022,65,376,1,0
IDU022,66,365,1,0
IDU022,67,335,1,0
IDU022,68,-1,1,0
IDU022,69,328,1,0
IDU022,70,337,1,0
IDU022,71,311,1,0
IDU022,72,-1,1,0
IDU022,73,324,1,0
IDU022,74,325,1,0
IDU022,75,297,1,0
IDU022,76,339,1,0
IDU022,77,-1,1,0
IDU022,1,1099,1,1
IDU022,2,784,1,1
IDU022,3,935,1,1
IDU022,4,725,1,1
IDU022,5,1834,1,1
IDU022,6,730,1,1
IDU022,7,1018,1,1
IDU022,8,876,1,1
IDU022,9,743,1,1
IDU022,10,885,1,1
IDU022,11,622,1,1
IDU022,12,688,1,1
IDU022,13,1297,1,1
IDU022,14,658,1,1
IDU022,15,1111,1,1
IDU022,16,576,1,1
IDU022,17,879,1,1
IDU022,18,676,1,1
IDU022,19,638,1,1
IDU022,20,602,1,1
IDU022,21,699,1,1
IDU022,22,593,1,1
IDU022,23,1027,1,1
IDU022,24,586,1,1
IDU022,1,901,-1,2
IDU022,1,934,-1,4
IDU022,1,1835,-1,5
IDU022,1,801,-1,3
IDU022,2,601,-1,2
IDU022,2,1468,-1,4
IDU022,2,2069,-1,5
IDU022,2,467,-1,3
IDU022,3,701,-1,2
IDU022,3,934,-1,4
IDU022,3,1635,-1,5
IDU022,3,601,-1,3
IDU022,4,700,-1,2
IDU022,4,1234,-1,4
IDU022,4,1934,-1,5
IDU022,4,601,-1,3
IDU022,5,834,-1,2
IDU022,5,1301,-1,4
IDU022,5,2135,-1,5
IDU022,6,768,-1,2
IDU022,6,1468,-1,4
IDU022,6,2236,-1,5
IDU022,7,600,-1,2
IDU022,7,1901,-1,4
IDU022,7,2501,-1,5
IDU022,7,634,-1,3
IDU022,8,867,-1,2
IDU022,8,934,-1,4
IDU022,8,1801,-1,5
IDU022,8,100,-1,3
IDU022,9,500,-1,2
IDU022,9,1768,-1,4
IDU022,9,2268,-1,5
IDU022,10,600,-1,2
IDU022,10,1734,-1,4
IDU022,10,2334,-1,5
IDU022,10,200,0,6
IDU022,10,567,-1,3
IDU022,11,468,-1,2
IDU022,11,1534,-1,4
IDU022,11,2002,-1,5
IDU022,12,600,-1,2
IDU022,12,1668,-1,4
IDU022,12,2268,-1,5
IDU022,12,567,-1,3
IDU022,13,600,-1,2
IDU022,13,1467,-1,4
IDU022,13,2067,-1,5
IDU022,13,500,-1,3
IDU022,14,634,-1,2
IDU022,14,1234,-1,4
IDU022,14,1868,-1,5
IDU022,14,500,-1,3
IDU022,15,701,-1,2
IDU022,15,1401,-1,4
IDU022,15,2102,-1,5
IDU022,15,567,-1,3
IDU022,16,867,-1,2
IDU022,16,1367,-1,4
IDU022,16,2234,-1,5
IDU022,16,433,-1,3
IDU022,17,801,-1,2
IDU022,17,734,-1,4
IDU022,17,1535,-1,5
IDU022,17,267,-1,3
IDU023,1,-1,0,0
IDU023,2,633,1,0
IDU023,3,223,1,0
IDU023,4,270,1,0
IDU023,5,231,1,0
IDU023,6,221,1,0
IDU023,7,258,1,0
IDU023,8,209,1,0
IDU023,9,255,0,0
IDU023,10,473,1,0
IDU023,11,381,1,0
IDU023,12,359,1,0
IDU023,13,370,1,0
IDU023,14,-1,1,0
IDU023,15,391,1,0
IDU023,16,380,1,0
IDU023,17,-1,1,0
IDU023,18,311,1,0
IDU023,19,578,1,0
IDU023,20,296,1,0
IDU023,21,354,1,0
IDU023,22,323,1,0
IDU023,23,-1,1,0
IDU023,24,582,1,0
IDU023,25,270,1,0
IDU023,26,279,1,0
IDU023,27,316,1,0
IDU023,28,283,1,0
IDU023,29,-1,1,0
IDU023,30,46,1,0
IDU023,31,322,1,0
IDU023,32,326,1,0
IDU023,33,-1,1,0
IDU023,34,316,1,0
IDU023,35,266,1,0
IDU023,36,304,1,0
IDU023,37,303,1,0
IDU023,38,-1,1,0
IDU023,39,335,1,0
IDU023,40,369,1,0
IDU023,41,-1,1,0
IDU023,42,312,1,0
IDU023,43,372,1,0
IDU023,44,354,1,0
IDU023,45,300,1,0
IDU023,46,367,1,0
IDU023,47,-1,1,0
IDU023,48,307,1,0
IDU023,49,292,1,0
IDU023,50,336,1,0
IDU023,51,-1,1,0
IDU023,52,351,1,0
IDU023,53,360,1,0
IDU023,54,-1,1,0
IDU023,55,320,1,0
IDU023,56,393,1,0
IDU023,57,325,1,0
IDU023,58,-1,1,0
IDU023,59,358,1,0
IDU023,60,301,1,0
IDU023,61,410,1,0
IDU023,62,349,1,0
IDU023,63,-1,1,0
IDU023,64,336,1,0
IDU023,65,-1,1,0
IDU023,66,313,1,0
IDU023,67,-1,1,0
IDU023,68,288,1,0
IDU023,69,372,1,0
IDU023,70,264,1,0
IDU023,71,-1,1,0
IDU023,72,340,1,0
IDU023,73,318,1,0
IDU023,74,285,1,0
IDU023,75,331,1,0
IDU023,76,-1,1,0
IDU023,77,324,1,0
IDU023,1,1753,1,1
IDU023,2,1273,1,1
IDU023,3,1232,1,1
IDU023,4,1218,1,1
IDU023,5,1405,1,1
IDU023,6,1501,1,1
IDU023,7,1190,1,1
IDU023,8,1282,1,1
IDU023,9,1210,1,1
IDU023,10,1441,1,1
IDU023,11,1106,1,1
IDU023,12,1386,1,1
IDU023,13,1715,1,1
IDU023,14,2206,1,1
IDU023,15,1184,1,1
IDU023,16,1163,1,1
IDU023,17,1450,1,1
IDU023,18,1453,1,1
IDU023,19,1402,1,1
IDU023,20,1129,1,1
IDU023,21,1183,1,1
IDU023,22,1360,1,1
IDU023,23,1220,1,1
IDU023,24,1117,1,1
IDU023,1,934,-1,2
IDU023,1,2769,-1,4
IDU023,1,3703,-1,5
IDU023,1,400,-1,3
IDU023,2,934,-1,2
IDU023,2,2635,-1,4
IDU023,2,3569,-1,5
IDU023,2,700,-1,3
IDU023,3,1001,-1,2
IDU023,3,2634,-1,4
IDU023,3,3635,-1,5
IDU023,3,234,-1,3
IDU023,4,534,-1,2
IDU023,4,2869,-1,4
IDU023,4,3403,-1,5
IDU023,4,633,-1,3
IDU023,5,533,-1,2
IDU023,5,4169,-1,4
IDU023,5,4702,-1,5
IDU023,6,300,-1,2
IDU023,6,3502,-1,4
IDU023,6,3802,-1,5
IDU023,7,901,-1,2
IDU023,7,2368,-1,4
IDU023,7,3269,-1,5
IDU023,7,534,-1,3
IDU023,8,767,-1,2
IDU023,8,2535,-1,4
IDU023,8,3302,-1,5
IDU023,8,667,-1,3
IDU023,9,1034,-1,2
IDU023,9,2101,-1,4
IDU023,9,3135,-1,5
IDU023,9,834,-1,3
IDU023,10,767,-1,2
IDU023,10,2702,-1,4
IDU023,10,3469,-1,5
IDU023,10,700,-1,3
IDU023,11,701,-1,2
IDU023,11,3136,-1,4
IDU023,11,3837,-1,5
IDU023,11,533,-1,3
IDU023,12,667,-1,2
IDU023,12,2835,-1,4
IDU023,12,3502,-1,5
IDU023,12,734,-1,3
IDU023,13,668,-1,2
IDU023,13,3336,-1,4
IDU023,13,4004,-1,5
IDU023,14,867,-1,2
IDU023,14,2868,-1,4
IDU023,14,3735,-1,5
IDU023,14,901,-1,3
IDU023,15,801,-1,2
IDU023,15,3102,-1,4
IDU023,15,3903,-1,5
IDU023,16,667,-1,2
IDU023,16,3536,-1,4
IDU023,16,4203,-1,5
IDU024,1,579,1,0
IDU024,2,834,1,0
IDU024,3,490,1,0
IDU024,4,500,1,0
IDU024,5,543,1,0
IDU024,6,957,1,0
IDU024,7,487,1,0
IDU024,8,532,1,0
IDU024,9,-1,1,0
IDU024,10,403,1,0
IDU024,11,-1,1,0
IDU024,12,414,1,0
IDU024,13,432,1,0
IDU024,14,-1,1,0
IDU024,15,446,1,0
IDU024,16,509,1,0
IDU024,17,-1,1,0
IDU024,18,445,1,0
IDU024,19,495,1,0
IDU024,20,-1,1,0
IDU024,21,371,1,0
IDU024,22,415,1,0
IDU024,23,432,1,0
IDU024,24,-1,1,0
IDU024,25,495,1,0
IDU024,26,442,1,0
IDU024,27,436,1,0
IDU024,28,-1,1,0
IDU024,29,415,1,0
IDU024,30,-1,1,0
IDU024,31,375,1,0
IDU024,32,473,1,0
IDU024,33,455,1,0
IDU024,34,431,1,0
IDU024,35,454,1,0
IDU024,36,427,1,0
IDU024,37,429,1,0
IDU024,38,-1,1,0
IDU024,39,404,1,0
IDU024,40,442,1,0
IDU024,41,431,1,0
IDU024,42,391,1,0
IDU024,43,452,1,0
IDU024,44,453,1,0
IDU024,45,415,1,0
IDU024,46,427,1,0
IDU024,47,-1,1,0
IDU024,48,456,1,0
IDU024,49,-1,1,0
IDU024,50,405,1,0
IDU024,51,416,1,0
IDU024,52,-1,1,0
IDU024,53,565,1,0
IDU024,54,421,1,0
IDU024,55,-1,1,0
IDU024,56,454,1,0
IDU024,57,481,1,0
IDU024,58,406,1,0
IDU024,59,441,1,0
IDU024,60,451,1,0
IDU024,61,-1,1,0
IDU024,62,468,1,0
IDU024,63,448,1,0
IDU024,64,421,1,0
IDU024,65,447,1,0
IDU024,66,419,1,0
IDU024,67,-1,1,0
IDU024,68,590,1,0
IDU024,69,496,1,0
IDU024,70,502,1,0
IDU024,71,418,1,0
IDU024,72,495,1,0
IDU024,73,479,1,0
IDU024,74,467,1,0
IDU024,75,-1,1,0
IDU024,76,453,1,0
IDU024,77,-1,1,0
IDU024,1,1026,1,1
IDU024,2,972,1,1
IDU024,3,1023,1,1
IDU024,4,954,1,1
IDU024,5,857,1,1
IDU024,6,1114,1,1
IDU024,7,929,1,1
IDU024,8,1115,1,1
IDU024,9,1101,1,1
IDU024,10,930,1,1
IDU024,11,1060,1,1
IDU024,12,954,1,1
IDU024,13,972,1,1
IDU024,14,1002,1,1
IDU024,15,1029,1,1
IDU024,16,911,1,1
IDU024,17,1022,1,1
IDU024,18,1043,1,1
IDU024,19,1178,1,1
IDU024,20,909,1,1
IDU024,21,1060,1,1
IDU024,22,900,1,1
IDU024,23,1075,1,1
IDU024,24,931,1,1
IDU024,1,901,-1,2
IDU024,1,700,-1,4
IDU024,1,1601,-1,5
IDU024,1,333,-1,3
IDU024,2,700,-1,2
IDU024,2,1534,-1,4
IDU024,2,2234,-1,5
IDU024,2,401,-1,3
IDU024,3,800,-1,2
IDU024,3,600,-1,4
IDU024,3,1400,-1,5
IDU024,3,400,-1,3
IDU024,4,667,-1,2
IDU024,4,933,-1,4
IDU024,4,1600,-1,5
IDU024,4,334,-1,3
IDU024,5,800,-1,2
IDU024,5,434,-1,4
IDU024,5,1234,-1,5
IDU024,5,300,-1,3
IDU024,6,734,-1,2
IDU024,6,1001,-1,4
IDU024,6,1735,-1,5
IDU024,7,767,-1,2
IDU024,7,1635,-1,4
IDU024,7,2402,-1,5
IDU024,7,266,-1,3
IDU024,8,734,-1,2
IDU024,8,1602,-1,4
IDU024,8,2336,-1,5
IDU024,8,166,-1,3
IDU024,9,767,-1,2
IDU024,9,934,-1,4
IDU024,9,1701,-1,5
IDU024,9,401,-1,3
IDU024,10,1067,-1,2
IDU024,10,600,-1,4
IDU024,10,1667,-1,5
IDU024,10,667,-1,3
IDU024,11,601,-1,2
IDU024,11,1501,-1,4
IDU024,11,2102,-1,5
IDU024,11,534,-1,3
IDU024,12,734,-1,2
IDU024,12,1934,-1,4
IDU024,12,2668,-1,5
IDU024,12,434,-1,3
IDU024,13,433,-1,2
IDU024,13,900,-1,4
IDU024,13,1333,-1,5
IDU024,14,1001,-1,2
IDU024,14,667,-1,4
IDU024,14,1668,-1,5
IDU024,14,467,-1,3
IDU024,15,567,-1,2
IDU024,15,1534,-1,4
IDU024,15,2101,-1,5
IDU024,15,668,-1,3
IDU024,16,734,-1,2
IDU024,16,500,-1,4
IDU024,16,1234,-1,5
IDU024,16,233,-1,3
IDU024,17,767,-1,2
IDU024,17,534,-1,4
IDU024,17,1301,-1,5
IDU024,17,500,-1,3
IDU025,1,333,1,0
IDU025,2,278,1,0
IDU025,3,284,1,0
IDU025,4,-1,1,0
IDU025,5,285,1,0
IDU025,6,301,1,0
IDU025,7,418,1,0
IDU025,8,295,1,0
IDU025,9,-1,1,0
IDU025,10,307,1,0
IDU025,11,264,1,0
IDU025,12,269,1,0
IDU025,13,356,1,0
IDU025,14,295,1,0
IDU025,15,263,1,0
IDU025,16,373,1,0
IDU025,17,244,0,0
IDU025,18,291,1,0
IDU025,19,359,1,0
IDU025,20,-1,1,0
IDU025,21,388,1,0
IDU025,22,273,1,0
IDU025,23,297,1,0
IDU025,24,265,0,0
IDU025,25,399,1,0
IDU025,26,299,1,0
IDU025,27,358,1,0
IDU025,28,350,1,0
IDU025,29,354,1,0
IDU025,30,391,1,0
IDU025,31,334,1,0
IDU025,32,308,1,0
IDU025,33,378,1,0
IDU025,34,-1,1,0
IDU025,35,360,1,0
IDU025,36,279,1,0
IDU025,37,313,1,0
IDU025,38,-1,1,0
IDU025,39,282,1,0
IDU025,40,-1,1,0
IDU025,41,365,1,0
IDU025,42,260,1,0
IDU025,43,300,1,0
IDU025,44,307,1,0
IDU025,45,259,1,0
IDU025,46,267,1,0
IDU025,47,-1,1,0
IDU025,48,273,1,0
IDU025,49,257,1,0
IDU025,50,265,1,0
IDU025,51,283,1,0
IDU025,52,283,1,0
IDU025,53,275,1,0
IDU025,54,301,1,0
IDU025,55,260,1,0
IDU025,56,309,1,0
IDU025,57,-1,1,0
IDU025,58,258,1,0
IDU025,59,265,1,0
IDU025,60,256,1,0
IDU025,61,274,0,0
IDU025,62,386,1,0
IDU025,63,-1,1,0
IDU025,64,281,1,0
IDU025,65,260,1,0
IDU025,66,277,1,0
IDU025,67,-1,1,0
IDU025,68,398,1,0
IDU025,69,-1,1,0
IDU025,70,322,1,0
IDU025,71,331,1,0
IDU025,72,310,0,0
IDU025,73,421,1,0
IDU025,74,327,1,0
IDU025,75,-1,1,0
IDU025,76,361,1,0
IDU025,77,-1,1,0
IDU025,1,923,1,1
IDU025,2,1008,1,1
IDU025,3,917,1,1
IDU025,4,834,1,1
IDU025,5,823,1,1
IDU025,6,665,1,1
IDU025,7,1072,1,1
IDU025,8,759,1,1
IDU025,9,817,1,1
IDU025,10,681,1,1
IDU025,11,656,1,1
IDU025,12,816,1,1
IDU025,13,784,1,1
IDU025,14,919,1,1
IDU025,15,941,1,1
IDU025,16,910,1,1
IDU025,17,873,1,1
IDU025,18,845,1,1
IDU025,19,678,1,1
IDU025,20,647,1,1
IDU025,21,714,1,1
IDU025,22,735,1,1
IDU025,23,589,1,1
IDU025,24,677,1,1
IDU025,1,534,-1,2
IDU025,1,1801,-1,4
IDU025,1,2335,-1,5
IDU025,2,668,-1,2
IDU025,2,1301,-1,4
IDU025,2,1969,-1,5
IDU025,2,668,-1,3
IDU025,3,733,-1,2
IDU025,3,1001,-1,4
IDU025,3,1734,-1,5
IDU025,3,667,-1,3
IDU025,4,635,-1,2
IDU025,4,1834,-1,4
IDU025,4,2469,-1,5
IDU025,4,601,-1,3
IDU025,5,667,-1,2
IDU025,5,1702,-1,4
IDU025,5,2369,-1,5
IDU025,5,434,-1,3
IDU025,6,934,-1,2
IDU025,6,1968,-1,4
IDU025,6,2902,-1,5
IDU025,7,701,-1,2
IDU025,7,1901,-1,4
IDU025,7,2602,-1,5
IDU025,7,567,-1,3
IDU025,8,834,-1,2
IDU025,8,2368,-1,4
IDU025,8,3202,-1,5
IDU025,8,467,-1,3
IDU025,9,867,-1,2
IDU025,9,1401,-1,4
IDU025,9,2268,-1,5
IDU025,9,534,-1,3
IDU025,10,701,-1,2
IDU025,10,2902,-1,4
IDU025,10,3603,-1,5
IDU025,10,534,-1,3
IDU025,11,1034,-1,2
IDU025,11,2302,-1,4
IDU025,11,3336,-1,5
IDU025,11,668,-1,3
IDU025,12,1067,-1,2
IDU025,12,1702,-1,4
IDU025,12,2769,-1,5
IDU025,12,501,-1,3
IDU025,13,1067,-1,2
IDU025,13,2568,-1,4
IDU025,13,3635,-1,5
IDU025,13,534,-1,3
IDU025,14,668,-1,2
IDU025,14,1735,-1,4
IDU025,14,2403,-1,5
IDU025,15,1001,-1,2
IDU025,15,2102,-1,4
IDU025,15,3103,-1,5
IDU025,15,600,-1,3
IDU025,16,767,-1,2
IDU025,16,2135,-1,4
IDU025,16,2902,-1,5
IDU025,16,501,-1,3
IDU025,17,634,-1,2
IDU025,17,2035,-1,4
IDU025,17,2669,-1,5
IDU026,1,700,1,0
IDU026,2,-1,1,0
IDU026,3,472,1,0
IDU026,4,-1,1,0
IDU026,5,368,1,0
IDU026,6,544,1,0
IDU026,7,-1,1,0
IDU026,8,335,1,0
IDU026,9,384,1,0
IDU026,10,440,1,0
IDU026,11,440,1,0
IDU026,12,463,1,0
IDU026,13,424,1,0
IDU026,14,492,1,0
IDU026,15,-1,1,0
IDU026,16,358,1,0
IDU026,17,480,1,0
IDU026,18,516,1,0
IDU026,19,521,1,0
IDU026,20,463,1,0
IDU026,21,-1,1,0
IDU026,22,383,1,0
IDU026,23,393,1,0
IDU026,24,576,1,0
IDU026,25,404,1,0
IDU026,26,504,1,0
IDU026,27,440,1,0
IDU026,28,365,1,0
IDU026,29,-1,1,0
IDU026,30,438,1,0
IDU026,31,364,1,0
IDU026,32,360,1,0
IDU026,33,383,1,0
IDU026,34,364,1,0
IDU026,35,374,1,0
IDU026,36,345,1,0
IDU026,37,383,1,0
IDU026,38,376,1,0
IDU026,39,-1,1,0
IDU026,40,342,1,0
IDU026,41,319,1,0
IDU026,42,398,1,0
IDU026,43,340,1,0
IDU026,44,360,1,0
IDU026,45,354,1,0
IDU026,46,-1,1,0
IDU026,47,469,1,0
IDU026,48,-1,1,0
IDU026,49,358,1,0
IDU026,50,420,1,0
IDU026,51,-1,1,0
IDU026,52,418,1,0
IDU026,53,341,1,0
IDU026,54,-1,1,0
IDU026,55,455,1,0
IDU026,56,426,1,0
IDU026,57,328,1,0
IDU026,58,366,1,0
IDU026,59,465,1,0
IDU026,60,-1,1,0
IDU026,61,402,1,0
IDU026,62,395,1,0
IDU026,63,-1,1,0
IDU026,64,465,1,0
IDU026,65,466,1,0
IDU026,66,-1,1,0
IDU026,67,395,1,0
IDU026,68,-1,1,0
IDU026,69,406,1,0
IDU026,70,444,1,0
IDU026,71,362,1,0
IDU026,72,-1,1,0
IDU026,73,374,1,0
IDU026,74,371,1,0
IDU026,75,339,1,0
IDU026,76,-1,1,0
IDU026,77,451,1,0
IDU026,1,1509,1,1
IDU026,2,1267,1,1
IDU026,3,1078,1,1
IDU026,4,1361,1,1
IDU026,5,1259,1,1
IDU026,6,1328,1,1
IDU026,7,1313,1,1
IDU026,8,1286,1,1
IDU026,9,1038,1,1
IDU026,10,1171,1,1
IDU026,11,1579,1,1
IDU026,12,1026,1,1
IDU026,13,1276,1,1
IDU026,14,1608,1,1
IDU026,15,1170,1,1
IDU026,16,1117,1,1
IDU026,17,884,1,1
IDU026,18,1049,1,1
IDU026,19,930,1,1
IDU026,20,915,1,1
IDU026,21,1069,1,1
IDU026,22,835,1,1
IDU026,23,1023,1,1
IDU026,24,903,1,1
IDU026,1,901,-1,2
IDU026,1,2468,-1,4
IDU026,1,3369,-1,5
IDU026,1,533,-1,3
IDU026,2,900,-1,2
IDU026,2,2536,-1,4
IDU026,2,3436,-1,5
IDU026,2,600,-1,3
IDU026,3,734,-1,2
IDU026,3,2669,-1,4
IDU026,3,3403,-1,5
IDU026,4,801,-1,2
IDU026,4,2569,-1,4
IDU026,4,3370,-1,5
IDU026,4,300,0,6
IDU026,4,534,-1,3
IDU026,5,700,-1,2
IDU026,5,2736,-1,4
IDU026,5,3436,-1,5
IDU026,5,600,-1,3
IDU026,6,800,-1,2
IDU026,6,2501,-1,4
IDU026,6,3301,-1,5
IDU026,6,634,-1,3
IDU026,7,501,-1,2
IDU026,7,2669,-1,4
IDU026,7,3170,-1,5
IDU026,8,868,-1,2
IDU026,8,2469,-1,4
IDU026,8,3337,-1,5
IDU026,8,534,-1,3
IDU026,9,868,-1,2
IDU026,9,2002,-1,4
IDU026,9,2870,-1,5
IDU026,9,500,-1,3
IDU026,10,700,-1,2
IDU026,10,1934,-1,4
IDU026,10,2634,-1,5
IDU026,10,566,-1,3
IDU026,11,901,-1,2
IDU026,11,1735,-1,4
IDU026,11,2636,-1,5
IDU026,11,501,-1,3
IDU026,12,633,-1,2
IDU026,12,2668,-1,4
IDU026,12,3301,-1,5
IDU026,12,467,-1,3
IDU026,13,734,-1,2
IDU026,13,2135,-1,4
IDU026,13,2869,-1,5
IDU026,13,567,-1,3
IDU026,14,634,-1,2
IDU026,14,2668,-1,4
IDU026,14,3302,-1,5
IDU026,14,567,-1,3
IDU026,15,467,-1,2
IDU026,15,1234,-1,4
IDU026,15,1701,-1,5
IDU026,16,801,-1,2
IDU026,16,2235,-1,4
IDU026,16,3036,-1,5
IDU026,16,734,-1,3
IDU026,17,834,-1,2
IDU026,17,2468,-1,4
IDU026,17,3302,-1,5
IDU026,17,701,-1,3
IDU027,1,637,1,0
IDU027,2,-1,1,0
IDU027,3,327,1,0
IDU027,4,-1,1,0
IDU027,5,388,1,0
IDU027,6,-1,0,0
IDU027,7,460,1,0
IDU027,8,326,1,0
IDU027,9,317,1,0
IDU027,10,-1,1,0
IDU027,11,279,1,0
IDU027,12,294,1,0
IDU027,13,-1,1,0
IDU027,14,337,1,0
IDU027,15,290,1,0
IDU027,16,-1,1,0
IDU027,17,313,1,0
IDU027,18,314,1,0
IDU027,19,337,1,0
IDU027,20,320,1,0
IDU027,21,315,1,0
IDU027,22,362,1,0
IDU027,23,-1,1,0
IDU027,24,328,1,0
IDU027,25,286,1,0
IDU027,26,326,1,0
IDU027,27,320,1,0
IDU027,28,299,1,0
IDU027,29,389,1,0
IDU027,30,-1,1,0
IDU027,31,280,1,0
IDU027,32,307,1,0
IDU027,33,301,1,0
IDU027,34,308,1,0
IDU027,35,-1,1,0
IDU027,36,276,1,0
IDU027,37,-1,1,0
IDU027,38,253,1,0
IDU027,39,-1,1,0
IDU027,40,354,1,0
IDU027,41,-1,1,0
IDU027,42,270,1,0
IDU027,43,356,1,0
IDU027,44,-1,1,0
IDU027,45,269,1,0
IDU027,46,-1,1,0
IDU027,47,266,1,0
IDU027,48,300,1,0
IDU027,49,316,1,0
IDU027,50,-1,1,0
IDU027,51,318,1,0
IDU027,52,340,1,0
IDU027,53,300,1,0
IDU027,54,380,1,0
IDU027,55,303,1,0
IDU027,56,311,1,0
IDU027,57,379,1,0
IDU027,58,315,1,0
IDU027,59,-1,1,0
IDU027,60,327,1,0
IDU027,61,278,1,0
IDU027,62,297,1,0
IDU027,63,647,1,0
IDU027,64,325,1,0
IDU027,65,333,1,0
IDU027,66,280,1,0
IDU027,67,313,1,0
IDU027,68,295,1,0
IDU027,69,-1,1,0
IDU027,70,299,1,0
IDU027,71,270,1,0
IDU027,72,265,1,0
IDU027,73,290,1,0
IDU027,74,334,1,0
IDU027,75,257,1,0
IDU027,76,-1,1,0
IDU027,77,253,1,0
IDU027,1,722,1,1
IDU027,2,555,1,1
IDU027,3,669,1,1
IDU027,4,533,1,1
IDU027,5,868,1,1
IDU027,6,604,1,1
IDU027,7,650,1,1
IDU027,8,564,1,1
IDU027,9,599,1,1
IDU027,10,622,1,1
IDU027,11,863,1,1
IDU027,12,722,1,1
IDU027,13,530,1,1
IDU027,14,809,1,1
IDU027,15,561,1,1
IDU027,16,692,1,1
IDU027,17,890,0,1
IDU027,18,726,1,1
IDU027,19,662,1,1
IDU027,20,665,1,1
IDU027,21,626,1,1
IDU027,22,562,1,1
IDU027,23,555,1,1
IDU027,24,493,1,1
IDU027,1,800,-1,2
IDU027,1,400,-1,4
IDU027,1,1200,-1,5
IDU027,1,367,-1,3
IDU027,2,701,-1,2
IDU027,2,968,-1,4
IDU027,2,1669,-1,5
IDU027,3,734,-1,2
IDU027,3,1568,-1,4
IDU027,3,2302,-1,5
IDU027,3,467,-1,3
IDU027,4,700,-1,2
IDU027,4,434,-1,4
IDU027,4,1134,-1,5
IDU027,4,500,-1,3
IDU027,5,633,-1,2
IDU027,5,1901,-1,4
IDU027,5,2534,-1,5
IDU027,5,400,-1,3
IDU027,6,734,-1,2
IDU027,6,668,-1,4
IDU027,6,1402,-1,5
IDU027,6,267,-1,3
IDU027,7,667,-1,2
IDU027,7,767,-1,4
IDU027,7,1434,-1,5
IDU027,7,500,-1,3
IDU027,8,867,-1,2
IDU027,8,366,-1,4
IDU027,8,1233,-1,5
IDU027,8,333,-1,3
IDU027,9,700,-1,2
IDU027,9,734,-1,4
IDU027,9,1434,-1,5
IDU027,9,534,-1,3
IDU027,10,701,-1,2
IDU027,10,901,-1,4
IDU027,10,1602,-1,5
IDU027,11,868,-1,2
IDU027,11,400,-1,4
IDU027,11,1268,-1,5
IDU027,11,234,-1,3
IDU027,12,567,-1,2
IDU027,12,701,-1,4
IDU027,12,1268,-1,5
IDU027,12,367,-1,3
IDU027,13,900,-1,2
IDU027,13,2536,-1,4
IDU027,13,3436,-1,5
IDU027,13,600,-1,3
IDU027,14,34,-1,2
IDU027,14,3502,-1,4
IDU027,14,3536,-1,5
IDU027,15,600,-1,2
IDU027,15,467,-1,4
IDU027,15,1067,-1,5
IDU027,15,333,-1,3
IDU027,16,734,-1,2
IDU027,16,333,-1,4
IDU027,16,1067,-1,5
IDU027,16,500,-1,3
IDU027,17,634,-1,2
IDU027,17,601,-1,4
IDU027,17,1235,-1,5
IDU027,17,534,-1,3
IDU028,1,389,1,0
IDU028,2,370,1,0
IDU028,3,-1,1,0
IDU028,4,429,1,0
IDU028,5,352,1,0
IDU028,6,382,1,0
IDU028,7,379,1,0
IDU028,8,360,1,0
IDU028,9,-1,1,0
IDU028,10,319,1,0
IDU028,11,319,1,0
IDU028,12,325,1,0
IDU028,13,325,1,0
IDU028,14,-1,1,0
IDU028,15,379,1,0
IDU028,16,334,1,0
IDU028,17,366,1,0
IDU028,18,-1,1,0
IDU028,19,400,1,0
IDU028,20,324,1,0
IDU028,21,311,1,0
IDU028,22,299,1,0
IDU028,23,377,1,0
IDU028,24,-1,1,0
IDU028,25,354,1,0
IDU028,26,308,1,0
IDU028,27,344,1,0
IDU028,28,336,1,0
IDU028,29,-1,1,0
IDU028,30,301,1,0
IDU028,31,289,1,0
IDU028,32,-1,1,0
IDU028,33,365,1,0
IDU028,34,302,1,0
IDU028,35,-1,1,0
IDU028,36,358,1,0
IDU028,37,-1,1,0
IDU028,38,302,1,0
IDU028,39,318,1,0
IDU028,40,298,1,0
IDU028,41,346,1,0
IDU028,42,297,1,0
IDU028,43,-1,1,0
IDU028,44,381,1,0
IDU028,45,294,1,0
IDU028,46,313,1,0
IDU028,47,302,1,0
IDU028,48,318,1,0
IDU028,49,321,1,0
IDU028,50,285,1,0
IDU028,51,308,1,0
IDU028,52,281,1,0
IDU028,53,258,0,0
IDU028,54,879,1,0
IDU028,55,-1,1,0
IDU028,56,342,1,0
IDU028,57,334,1,0
IDU028,58,336,1,0
IDU028,59,-1,1,0
IDU028,60,360,1,0
IDU028,61,438,1,0
IDU028,62,-1,1,0
IDU028,63,363,1,0
IDU028,64,-1,1,0
IDU028,65,392,1,0
IDU028,66,303,1,0
IDU028,67,298,1,0
IDU028,68,-1,1,0
IDU028,69,357,1,0
IDU028,70,311,1,0
IDU028,71,334,1,0
IDU028,72,325,1,0
IDU028,73,336,1,0
IDU028,74,360,1,0
IDU028,75,386,1,0
IDU028,76,-1,1,0
IDU028,77,331,1,0
IDU028,1,1031,0,1
IDU028,2,927,1,1
IDU028,3,1278,1,1
IDU028,4,1512,1,1
IDU028,5,908,0,1
IDU028,6,881,1,1
IDU028,7,1556,1,1
IDU028,8,1242,1,1
IDU028,9,1127,1,1
IDU028,10,1539,1,1
IDU028,11,822,1,1
IDU028,12,973,1,1
IDU028,13,618,1,1
IDU028,14,722,1,1
IDU028,15,860,1,1
IDU028,16,949,1,1
IDU028,17,592,1,1
IDU028,18,885,1,1
IDU028,19,764,0,1
IDU028,20,957,1,1
IDU028,21,2087,1,1
IDU028,22,646,1,1
IDU028,23,713,1,1
IDU028,24,943,1,1
IDU028,1,667,-1,2
IDU028,1,2902,-1,4
IDU028,1,3569,-1,5
IDU028,1,533,-1,3
IDU028,2,634,-1,2
IDU028,2,2702,-1,4
IDU028,2,3336,-1,5
IDU028,3,700,-1,2
IDU028,3,3103,-1,4
IDU028,3,3803,-1,5
IDU028,3,133,-1,3
IDU028,4,634,-1,2
IDU028,4,3269,-1,4
IDU028,4,3903,-1,5
IDU028,5,634,-1,2
IDU028,5,3102,-1,4
IDU028,5,3736,-1,5
IDU028,6,734,-1,2
IDU028,6,3136,-1,4
IDU028,6,3870,-1,5
IDU028,6,368,-1,3
IDU028,7,600,-1,2
IDU028,7,2935,-1,4
IDU028,7,3535,-1,5
IDU028,7,167,-1,3
IDU028,8,734,-1,2
IDU028,8,2935,-1,4
IDU028,8,3669,-1,5
IDU028,8,567,-1,3
IDU028,9,634,-1,2
IDU028,9,3068,-1,4
IDU028,9,3702,-1,5
IDU028,9,466,-1,3
IDU028,10,767,-1,2
IDU028,10,3002,-1,4
IDU028,10,3769,-1,5
IDU028,10,333,-1,3
IDU028,11,768,-1,2
IDU028,11,2802,-1,4
IDU028,11,3570,-1,5
IDU028,11,266,-1,3
IDU028,12,733,-1,2
IDU028,12,2902,-1,4
IDU028,12,3635,-1,5
IDU028,13,34,-1,2
IDU028,13,3702,-1,4
IDU028,13,3736,-1,5
IDU028,13,501,-1,3
IDU028,14,600,-1,2
IDU028,14,3569,-1,4
IDU028,14,4169,-1,5
IDU028,14,267,-1,3
IDU028,15,901,-1,2
IDU028,15,2669,-1,4
IDU028,15,3570,-1,5
IDU028,15,534,-1,3
IDU028,16,767,-1,2
IDU028,16,2835,-1,4
IDU028,16,3602,-1,5
IDU028,16,834,0,6
IDU028,16,533,-1,3
IDU028,17,734,-1,2
IDU028,17,2368,-1,4
IDU028,17,3102,-1,5
IDU028,17,634,-1,3
