SUBJECT,TRIAL,WORD,COLOR,CONGRUENT,ANSWER,CORRECT,REACTION TIME,TIMESTAMP
IDU002,1,BLU,GIALLO,0,g,1,1078,1708701738212
IDU002,2,VERDE,GIALLO,0,g,1,616,1708701739353
IDU002,3,GIALLO,VERDE,0,v,1,949,1708701740900
IDU002,4,ROSSO,VERDE,0,v,1,453,1708701741951
IDU002,5,GIALLO,BLU,0,b,1,751,1708701743298
IDU002,9,ROSSO,GIALLO,0,g,1,798,1708701748123
IDU002,13,ROSSO,BLU,0,b,1,833,1708701753079
IDU002,17,VERDE,ROSSO,0,r,1,674,1708701758461
IDU002,18,BLU,VERDE,0,v,1,959,1708701759943
IDU002,20,GIALLO,ROSSO,0,r,1,755,1708701762491
IDU002,23,BLU,ROSSO,0,r,1,716,1708701766133
IDU002,24,VERDE,BLU,0,b,1,633,1708701767290
IDU008,1,ROSSO,VERDE,0,v,1,1195,1714486900892
IDU008,3,BLU,ROSSO,0,r,1,1416,1714486904481
IDU008,5,GIALLO,ROSSO,0,r,1,968,1714486907422
IDU008,6,GIALLO,BLU,0,b,1,1007,1714486908953
IDU008,8,GIALLO,VERDE,0,v,1,935,1714486911798
IDU008,9,VERDE,BLU,0,b,1,902,1714486913225
IDU008,11,VERDE,GIALLO,0,g,1,944,1714486916281
IDU008,13,VERDE,ROSSO,0,r,1,937,1714486919236
IDU008,20,BLU,VERDE,0,v,1,1010,1714486929269
IDU008,21,ROSSO,GIALLO,0,g,1,894,1714486930688
IDU008,23,BLU,GIALLO,0,g,1,947,1714486933480
IDU008,24,ROSSO,BLU,0,b,1,1512,1714486935516
IDU011,2,VERDE,GIALLO,0,g,1,2281,1715262677033
IDU011,3,BLU,VERDE,0,v,1,995,1715262678552
IDU011,4,BLU,GIALLO,0,g,1,1783,1715262680858
IDU011,6,VERDE,ROSSO,0,r,1,893,1715262683940
IDU011,7,VERDE,BLU,0,b,1,946,1715262685411
IDU011,8,GIALLO,VERDE,0,v,1,919,1715262686855
IDU011,15,BLU,ROSSO,0,r,1,1190,1715262698225
IDU011,16,ROSSO,VERDE,0,v,1,1263,1715262700011
IDU011,18,GIALLO,BLU,0,b,1,1097,1715262702972
IDU011,19,GIALLO,ROSSO,0,r,1,901,1715262704398
IDU011,21,ROSSO,BLU,0,b,1,1445,1715262707781
IDU011,23,ROSSO,GIALLO,0,g,1,961,1715262710819
IDU013,1,VERDE,ROSSO,0,r,1,1634,1715765677703
IDU013,2,GIALLO,BLU,0,b,1,1250,1715765679477
IDU013,4,ROSSO,BLU,0,b,1,947,1715765682345
IDU013,5,ROSSO,VERDE,0,v,1,1186,1715765684055
IDU013,6,VERDE,BLU,0,b,1,1257,1715765685835
IDU013,13,BLU,VERDE,0,v,1,1320,1715765696029
IDU013,15,VERDE,GIALLO,0,g,1,1396,1715765699664
IDU013,16,ROSSO,GIALLO,0,g,1,1269,1715765701455
IDU013,17,BLU,GIALLO,0,g,1,1065,1715765703044
IDU013,19,BLU,ROSSO,0,r,1,1564,1715765706539
IDU013,20,GIALLO,VERDE,0,v,1,980,1715765708044
IDU013,22,GIALLO,ROSSO,0,r,1,1532,1715765711483
IDU015,3,VERDE,GIALLO,0,g,1,820,1716546524721
IDU015,4,BLU,GIALLO,0,g,1,734,1716546525980
IDU015,6,BLU,VERDE,0,v,1,833,1716546528309
IDU015,9,GIALLO,VERDE,0,v,1,1022,1716546532463
IDU015,11,VERDE,ROSSO,0,r,1,690,1716546534696
IDU015,14,ROSSO,VERDE,0,v,1,809,1716546538664
IDU015,17,GIALLO,BLU,0,b,1,1033,1716546542334
IDU015,20,ROSSO,GIALLO,0,g,1,667,1716546545772
IDU015,21,ROSSO,BLU,0,b,1,879,1716546547175
IDU015,22,GIALLO,ROSSO,0,r,1,690,1716546548391
IDU015,23,BLU,ROSSO,0,r,1,611,1716546549527
IDU015,24,VERDE,BLU,0,b,1,865,1716546550916
IDU017,1,VERDE,GIALLO,0,v,0,831,1716821026990
IDU017,4,BLU,GIALLO,0,g,1,874,1716821031123
IDU017,6,ROSSO,VERDE,0,v,1,942,1716821034343
IDU017,7,GIALLO,VERDE,0,v,1,486,1716821035352
IDU017,8,GIALLO,ROSSO,0,r,1,479,1716821036356
IDU017,10,BLU,VERDE,0,v,1,609,1716821038603
IDU017,11,VERDE,BLU,0,r,0,595,1716821039722
IDU017,16,VERDE,ROSSO,0,r,1,582,1716821045109
IDU017,17,ROSSO,BLU,0,b,1,777,1716821046410
IDU017,19,GIALLO,BLU,0,b,1,769,1716821049014
IDU017,21,ROSSO,GIALLO,0,g,1,568,1716821051198
IDU017,22,BLU,ROSSO,0,r,1,767,1716821052488
IDU019,3,BLU,VERDE,0,v,1,973,1717496500173
IDU019,4,VERDE,BLU,0,b,1,1001,1717496501698
IDU019,5,GIALLO,ROSSO,0,r,1,1303,1717496503527
IDU019,6,ROSSO,BLU,0,b,1,1091,1717496505150
IDU019,8,GIALLO,BLU,0,b,1,1028,1717496508095
IDU019,18,VERDE,GIALLO,0,g,1,904,1717496520792
IDU019,19,VERDE,ROSSO,0,r,1,750,1717496522066
IDU019,20,BLU,ROSSO,0,b,0,772,1717496523362
IDU019,21,ROSSO,VERDE,0,v,1,1646,1717496525532
IDU019,22,GIALLO,VERDE,0,v,1,1260,1717496527315
IDU019,23,ROSSO,GIALLO,0,g,1,1023,1717496528863
IDU019,24,BLU,GIALLO,0,g,1,802,1717496530189
IDU021,1,VERDE,BLU,0,b,1,1265,1721315281395
IDU021,3,ROSSO,VERDE,0,v,1,1041,1721315284461
IDU021,4,VERDE,ROSSO,0,r,1,1204,1721315286190
IDU021,5,GIALLO,BLU,0,b,1,1225,1721315287939
IDU021,6,ROSSO,GIALLO,0,g,1,1163,1721315289626
IDU021,7,BLU,GIALLO,0,g,1,788,1721315290938
IDU021,10,BLU,ROSSO,0,r,1,1415,1721315296029
IDU021,11,GIALLO,VERDE,0,v,1,1087,1721315297640
IDU021,15,BLU,VERDE,0,v,1,1023,1721315303532
IDU021,17,GIALLO,ROSSO,0,r,1,1118,1721315306580
IDU021,19,ROSSO,BLU,0,b,1,878,1721315309619
IDU021,21,VERDE,GIALLO,0,g,1,1206,1721315312685
IDU024,1,ROSSO,GIALLO,0,g,1,1026,1725875159335
IDU024,6,ROSSO,BLU,0,b,1,1114,1725875166876
IDU024,8,GIALLO,VERDE,0,v,1,1115,1725875169969
IDU024,9,GIALLO,ROSSO,0,r,1,1101,1725875171594
IDU024,11,ROSSO,VERDE,0,v,1,1060,1725875174633
IDU024,13,VERDE,BLU,0,b,1,972,1725875177609
IDU024,14,BLU,GIALLO,0,g,1,1002,1725875179136
IDU024,15,GIALLO,BLU,0,b,1,1029,1725875180691
IDU024,17,VERDE,GIALLO,0,g,1,1022,1725875183672
IDU024,18,BLU,ROSSO,0,r,1,1043,1725875185240
IDU024,19,BLU,VERDE,0,v,1,1178,1725875186941
IDU024,23,VERDE,ROSSO,0,r,1,1075,1725875192982
IDU025,2,BLU,GIALLO,0,g,1,1008,1726566187590
IDU025,3,GIALLO,ROSSO,0,r,1,917,1726566189032
IDU025,4,ROSSO,BLU,0,b,1,834,1726566190389
IDU025,5,BLU,VERDE,0,v,1,823,1726566191738
IDU025,7,GIALLO,VERDE,0,v,1,1072,1726566194525
IDU025,9,BLU,ROSSO,0,r,1,817,1726566197150
IDU025,10,VERDE,ROSSO,0,r,1,681,1726566198356
IDU025,14,VERDE,GIALLO,0,g,1,919,1726566203628
IDU025,15,ROSSO,VERDE,0,v,1,941,1726566205093
IDU025,18,ROSSO,GIALLO,0,g,1,845,1726566209294
IDU025,19,GIALLO,BLU,0,b,1,678,1726566210498
IDU025,23,VERDE,BLU,0,b,1,589,1726566215278
IDU027,3,GIALLO,BLU,0,b,1,669,1726758044479
IDU027,5,VERDE,ROSSO,0,r,1,868,1726758046929
IDU027,7,BLU,VERDE,0,v,1,650,1726758049230
IDU027,8,VERDE,GIALLO,0,g,1,564,1726758050318
IDU027,10,GIALLO,ROSSO,0,r,1,622,1726758052587
IDU027,11,ROSSO,VERDE,0,v,1,863,1726758053975
IDU027,15,ROSSO,BLU,0,b,1,561,1726758058695
IDU027,16,BLU,ROSSO,0,r,1,692,1726758059911
IDU027,17,GIALLO,VERDE,0,g,0,890,1726758061326
IDU027,19,BLU,GIALLO,0,g,1,662,1726758063761
IDU027,22,ROSSO,GIALLO,0,g,1,562,1726758067187
IDU027,24,VERDE,BLU,0,b,1,493,1726758069282
IDU029,1,BLU,GIALLO,0,g,1,1120,1727183557443
IDU029,4,VERDE,GIALLO,0,g,1,1047,1727183561515
IDU029,7,GIALLO,VERDE,0,v,1,1243,1727183566308
IDU029,8,VERDE,BLU,0,b,1,937,1727183567770
IDU029,9,ROSSO,BLU,0,b,1,582,1727183568875
IDU029,10,BLU,ROSSO,0,r,1,826,1727183570226
IDU029,11,GIALLO,ROSSO,0,r,1,575,1727183571323
IDU029,13,VERDE,ROSSO,0,r,1,494,1727183573344
IDU029,16,ROSSO,VERDE,0,v,1,574,1727183576853
IDU029,21,BLU,VERDE,0,v,1,1073,1727183583464
IDU029,23,ROSSO,GIALLO,0,g,1,1059,1727183586139
IDU029,24,GIALLO,BLU,0,b,1,1003,1727183587667
IDU031,1,GIALLO,VERDE,0,v,1,814,1727254079781
IDU031,3,ROSSO,GIALLO,0,g,1,642,1727254082006
IDU031,4,BLU,VERDE,0,v,1,947,1727254083478
IDU031,8,ROSSO,BLU,0,b,1,780,1727254089691
IDU031,9,ROSSO,VERDE,0,v,1,869,1727254091085
IDU031,11,VERDE,BLU,0,b,1,613,1727254093342
IDU031,12,BLU,GIALLO,0,g,1,596,1727254094462
IDU031,13,BLU,ROSSO,0,r,1,950,1727254095936
IDU031,14,GIALLO,BLU,0,b,1,729,1727254097190
IDU031,18,GIALLO,ROSSO,0,r,1,593,1727254101789
IDU031,20,VERDE,ROSSO,0,r,1,607,1727254104044
IDU031,22,VERDE,GIALLO,0,g,1,675,1727254106308
IDU033,5,VERDE,BLU,0,b,1,1177,1727443428790
IDU033,10,ROSSO,BLU,0,b,1,1091,1727443435840
IDU033,11,GIALLO,VERDE,0,v,1,1461,1727443437824
IDU033,13,BLU,ROSSO,0,r,1,1219,1727443440846
IDU033,14,BLU,GIALLO,0,g,1,2237,1727443443608
IDU033,15,ROSSO,VERDE,0,v,1,1079,1727443445210
IDU033,16,ROSSO,GIALLO,0,g,1,1083,1727443446818
IDU033,17,VERDE,GIALLO,0,g,1,915,1727443448257
IDU033,18,GIALLO,BLU,0,b,1,990,1727443449771
IDU033,19,BLU,VERDE,0,v,1,1277,1727443451572
IDU033,21,VERDE,ROSSO,0,r,1,1064,1727443455156
IDU033,24,GIALLO,ROSSO,0,r,1,1024,1727443459536
IDU035,1,BLU,GIALLO,0,g,1,941,1727775126661
IDU035,3,VERDE,BLU,0,b,1,869,1727775129354
IDU035,4,GIALLO,VERDE,0,v,1,1040,1727775130917
IDU035,5,ROSSO,BLU,0,b,1,876,1727775132317
IDU035,7,GIALLO,BLU,0,b,1,920,1727775135057
IDU035,8,ROSSO,GIALLO,0,g,1,683,1727775136264
IDU035,9,GIALLO,ROSSO,0,r,1,1076,1727775137863
IDU035,10,BLU,ROSSO,0,r,1,642,1727775139028
IDU035,12,ROSSO,VERDE,0,v,1,840,1727775141530
IDU035,14,BLU,VERDE,0,v,1,640,1727775143848
IDU035,20,VERDE,GIALLO,0,g,1,840,1727775151419
IDU035,24,VERDE,ROSSO,0,r,1,833,1727775156526
IDU037,2,BLU,VERDE,0,v,1,1200,1728482073326
IDU037,3,ROSSO,GIALLO,0,g,1,1987,1728482075837
IDU037,5,VERDE,BLU,0,b,1,1011,1728482079456
IDU037,6,BLU,ROSSO,0,r,1,1961,1728482081941
IDU037,7,VERDE,GIALLO,0,g,1,1232,1728482083698
IDU037,10,ROSSO,VERDE,0,v,1,1637,1728482090211
IDU037,12,GIALLO,BLU,0,b,1,1875,1728482094952
IDU037,13,GIALLO,VERDE,0,v,1,2204,1728482097680
IDU037,14,VERDE,ROSSO,0,r,1,1982,1728482100187
IDU037,20,GIALLO,ROSSO,0,r,1,1542,1728482114003
IDU037,23,ROSSO,BLU,0,b,1,1210,1728482119494
IDU037,24,BLU,GIALLO,0,g,1,1147,1728482121165
IDU038,2,VERDE,ROSSO,0,r,1,1573,1728484059366
IDU038,3,GIALLO,ROSSO,0,r,1,1339,1728484061229
IDU038,4,BLU,GIALLO,0,g,1,1181,1728484062933
IDU038,8,VERDE,GIALLO,0,g,1,1558,1728484070311
IDU038,9,BLU,VERDE,0,g,0,1478,1728484072313
IDU038,10,ROSSO,GIALLO,0,g,1,1516,1728484074353
IDU038,11,GIALLO,BLU,0,b,1,1765,1728484076643
IDU038,13,BLU,ROSSO,0,r,1,1011,1728484079639
IDU038,15,GIALLO,VERDE,0,v,1,1123,1728484082759
IDU038,18,ROSSO,BLU,0,b,1,1341,1728484088462
IDU038,19,VERDE,BLU,0,b,1,1108,1728484090093
IDU038,23,ROSSO,VERDE,0,v,1,1295,1728484096266
IDU040,2,VERDE,GIALLO,0,g,1,1886,1730392033692
IDU040,3,GIALLO,BLU,0,b,1,1204,1730392035420
IDU040,4,ROSSO,BLU,0,b,1,952,1730392036895
IDU040,5,BLU,ROSSO,0,r,1,1391,1730392038811
IDU040,7,BLU,VERDE,0,v,1,1760,1730392042943
IDU040,8,GIALLO,ROSSO,0,r,1,1270,1730392044738
IDU040,9,ROSSO,GIALLO,0,g,1,1143,1730392046405
IDU040,10,VERDE,ROSSO,0,r,1,1798,1730392048727
IDU040,11,BLU,GIALLO,0,g,1,1446,1730392050697
IDU040,12,ROSSO,VERDE,0,v,1,1201,1730392052422
IDU040,13,VERDE,BLU,0,b,1,1802,1730392054747
IDU040,20,GIALLO,VERDE,0,v,1,1207,1730392067131
