SUBJECT,TRIAL,WORD,COLOR,CONGRUENT,ANSWER,CORRECT,REACTION TIME,TIMESTAMP
IDU002,1,BLU,GIALLO,0,g,1,1078,1708701738212
IDU002,2,VERDE,GIALLO,0,g,1,616,1708701739353
IDU002,3,GIALLO,VERDE,0,v,1,949,1708701740900
IDU002,4,ROSSO,VERDE,0,v,1,453,1708701741951
IDU002,5,GIALLO,BLU,0,b,1,751,1708701743298
IDU002,6,ROSSO,ROSSO,1,r,1,612,1708701744433
IDU002,7,GIALLO,GIALLO,1,g,1,811,1708701745779
IDU002,8,GIALLO,GIALLO,1,g,1,497,1708701746801
IDU002,9,ROSSO,GIALLO,0,g,1,798,1708701748123
IDU002,10,VERDE,VERDE,1,v,1,770,1708701749457
IDU002,11,VERDE,VERDE,1,v,1,497,1708701750478
IDU002,12,ROSSO,ROSSO,1,r,1,654,1708701751657
IDU002,13,ROSSO,BLU,0,b,1,833,1708701753079
IDU002,14,VERDE,VERDE,1,v,1,1087,1708701754713
IDU002,15,ROSSO,ROSSO,1,r,1,662,1708701755898
IDU002,16,BLU,BLU,1,b,1,765,1708701757260
IDU002,17,VERDE,ROSSO,0,r,1,674,1708701758461
IDU002,18,BLU,VERDE,0,v,1,959,1708701759943
IDU002,19,GIALLO,GIALLO,1,g,1,662,1708701761130
IDU002,20,GIALLO,ROSSO,0,r,1,755,1708701762491
IDU002,21,BLU,BLU,1,b,1,707,1708701763778
IDU002,22,BLU,BLU,1,b,1,589,1708701764892
IDU002,23,BLU,ROSSO,0,r,1,716,1708701766133
IDU002,24,VERDE,BLU,0,b,1,633,1708701767290
IDU008,1,ROSSO,VERDE,0,v,1,1195,1714486900892
IDU008,2,GIALLO,GIALLO,1,g,1,1123,1714486902540
IDU008,3,BLU,ROSSO,0,r,1,1416,1714486904481
IDU008,4,ROSSO,ROSSO,1,r,1,924,1714486905929
IDU008,5,GIALLO,ROSSO,0,r,1,968,1714486907422
IDU008,6,GIALLO,BLU,0,b,1,1007,1714486908953
IDU008,7,VERDE,VERDE,1,v,1,861,1714486910338
IDU008,8,GIALLO,VERDE,0,v,1,935,1714486911798
IDU008,9,VERDE,BLU,0,b,1,902,1714486913225
IDU008,10,GIALLO,GIALLO,1,g,1,1063,1714486914811
IDU008,11,VERDE,GIALLO,0,g,1,944,1714486916281
IDU008,12,ROSSO,ROSSO,1,r,1,969,1714486917774
IDU008,13,VERDE,ROSSO,0,r,1,937,1714486919236
IDU008,14,BLU,BLU,1,b,1,806,1714486920566
IDU008,15,VERDE,VERDE,1,v,1,905,1714486921995
IDU008,16,BLU,BLU,1,b,1,1116,1714486923636
IDU008,17,ROSSO,ROSSO,1,r,1,833,1714486924994
IDU008,18,GIALLO,GIALLO,1,g,1,914,1714486926432
IDU008,19,VERDE,VERDE,1,v,1,778,1714486927734
IDU008,20,BLU,VERDE,0,v,1,1010,1714486929269
IDU008,21,ROSSO,GIALLO,0,g,1,894,1714486930688
IDU008,22,BLU,BLU,1,b,1,797,1714486932009
IDU008,23,BLU,GIALLO,0,g,1,947,1714486933480
IDU008,24,ROSSO,BLU,0,b,1,1512,1714486935516
IDU011,1,GIALLO,GIALLO,1,g,1,900,1715262674229
IDU011,2,VERDE,GIALLO,0,g,1,2281,1715262677033
IDU011,3,BLU,VERDE,0,v,1,995,1715262678552
IDU011,4,BLU,GIALLO,0,g,1,1783,1715262680858
IDU011,5,VERDE,VERDE,1,v,1,1141,1715262682524
IDU011,6,VERDE,ROSSO,0,r,1,893,1715262683940
IDU011,7,VERDE,BLU,0,b,1,946,1715262685411
IDU011,8,GIALLO,VERDE,0,v,1,919,1715262686855
IDU011,9,BLU,BLU,1,b,1,1120,1715262688500
IDU011,10,ROSSO,ROSSO,1,r,1,949,1715262689972
IDU011,11,GIALLO,GIALLO,1,g,1,1089,1715262691585
IDU011,12,BLU,BLU,1,b,1,1476,1715262693584
IDU011,13,ROSSO,ROSSO,1,r,1,1113,1715262695221
IDU011,14,VERDE,VERDE,1,v,1,765,1715262696512
IDU011,15,BLU,ROSSO,0,r,1,1190,1715262698225
IDU011,16,ROSSO,VERDE,0,v,1,1263,1715262700011
IDU011,17,ROSSO,ROSSO,1,r,1,816,1715262701352
IDU011,18,GIALLO,BLU,0,b,1,1097,1715262702972
IDU011,19,GIALLO,ROSSO,0,r,1,901,1715262704398
IDU011,20,GIALLO,GIALLO,1,g,1,890,1715262705812
IDU011,21,ROSSO,BLU,0,b,1,1445,1715262707781
IDU011,22,BLU,BLU,1,b,1,1029,1715262709334
IDU011,23,ROSSO,GIALLO,0,g,1,961,1715262710819
IDU011,24,VERDE,VERDE,1,v,1,979,1715262712322
IDU013,1,VERDE,ROSSO,0,r,1,1634,1715765677703
IDU013,2,GIALLO,BLU,0,b,1,1250,1715765679477
IDU013,3,ROSSO,ROSSO,1,r,1,872,1715765680873
IDU013,4,ROSSO,BLU,0,b,1,947,1715765682345
IDU013,5,ROSSO,VERDE,0,v,1,1186,1715765684055
IDU013,6,VERDE,BLU,0,b,1,1257,1715765685835
IDU013,7,BLU,BLU,1,b,1,783,1715765687141
IDU013,8,VERDE,VERDE,1,v,1,867,1715765688532
IDU013,9,VERDE,VERDE,1,v,1,698,1715765689754
IDU013,10,GIALLO,GIALLO,1,g,1,917,1715765691193
IDU013,11,ROSSO,ROSSO,1,r,1,921,1715765692637
IDU013,12,GIALLO,GIALLO,1,g,1,1023,1715765694185
IDU013,13,BLU,VERDE,0,v,1,1320,1715765696029
IDU013,14,GIALLO,GIALLO,1,g,1,1193,1715765697745
IDU013,15,VERDE,GIALLO,0,g,1,1396,1715765699664
IDU013,16,ROSSO,GIALLO,0,g,1,1269,1715765701455
IDU013,17,BLU,GIALLO,0,g,1,1065,1715765703044
IDU013,18,ROSSO,ROSSO,1,r,1,884,1715765704451
IDU013,19,BLU,ROSSO,0,r,1,1564,1715765706539
IDU013,20,GIALLO,VERDE,0,v,1,980,1715765708044
IDU013,21,BLU,BLU,1,b,1,860,1715765709428
IDU013,22,GIALLO,ROSSO,0,r,1,1532,1715765711483
IDU013,23,BLU,BLU,1,b,1,1352,1715765713360
IDU013,24,VERDE,VERDE,1,v,1,1615,1715765715498
IDU015,1,VERDE,VERDE,1,v,1,849,1716546522060
IDU015,2,ROSSO,ROSSO,1,r,1,727,1716546523377
IDU015,3,VERDE,GIALLO,0,g,1,820,1716546524721
IDU015,4,BLU,GIALLO,0,g,1,734,1716546525980
IDU015,5,GIALLO,GIALLO,1,g,1,430,1716546526950
IDU015,6,BLU,VERDE,0,v,1,833,1716546528309
IDU015,7,GIALLO,GIALLO,1,g,1,716,1716546529547
IDU015,8,GIALLO,GIALLO,1,g,1,809,1716546530900
IDU015,9,GIALLO,VERDE,0,v,1,1022,1716546532463
IDU015,10,VERDE,VERDE,1,v,1,450,1716546533482
IDU015,11,VERDE,ROSSO,0,r,1,690,1716546534696
IDU015,12,VERDE,VERDE,1,v,1,674,1716546535931
IDU015,13,BLU,BLU,1,b,1,852,1716546537331
IDU015,14,ROSSO,VERDE,0,v,1,809,1716546538664
IDU015,15,ROSSO,ROSSO,1,r,1,617,1716546539805
IDU015,16,ROSSO,ROSSO,1,r,1,447,1716546540778
IDU015,17,GIALLO,BLU,0,b,1,1033,1716546542334
IDU015,18,BLU,BLU,1,b,1,585,1716546543486
IDU015,19,BLU,BLU,1,b,1,572,1716546544582
IDU015,20,ROSSO,GIALLO,0,g,1,667,1716546545772
IDU015,21,ROSSO,BLU,0,b,1,879,1716546547175
IDU015,22,GIALLO,ROSSO,0,r,1,690,1716546548391
IDU015,23,BLU,ROSSO,0,r,1,611,1716546549527
IDU015,24,VERDE,BLU,0,b,1,865,1716546550916
IDU017,1,VERDE,GIALLO,0,v,0,831,1716821026990
IDU017,2,ROSSO,ROSSO,1,r,1,929,1716821028444
IDU017,3,BLU,BLU,1,b,1,757,1716821029726
IDU017,4,BLU,GIALLO,0,g,1,874,1716821031123
IDU017,5,BLU,BLU,1,b,1,1229,1716821032877
IDU017,6,ROSSO,VERDE,0,v,1,942,1716821034343
IDU017,7,GIALLO,VERDE,0,v,1,486,1716821035352
IDU017,8,GIALLO,ROSSO,0,r,1,479,1716821036356
IDU017,9,GIALLO,GIALLO,1,g,1,591,1716821037470
IDU017,10,BLU,VERDE,0,v,1,609,1716821038603
IDU017,11,VERDE,BLU,0,r,0,595,1716821039722
IDU017,12,ROSSO,ROSSO,1,r,1,604,1716821040850
IDU017,13,VERDE,VERDE,1,v,1,647,1716821042021
IDU017,14,VERDE,VERDE,1,v,1,406,1716821042950
IDU017,15,ROSSO,ROSSO,1,r,1,530,1716821044004
IDU017,16,VERDE,ROSSO,0,r,1,582,1716821045109
IDU017,17,ROSSO,BLU,0,b,1,777,1716821046410
IDU017,18,GIALLO,GIALLO,1,g,1,787,1716821047721
IDU017,19,GIALLO,BLU,0,b,1,769,1716821049014
IDU017,20,VERDE,VERDE,1,v,1,569,1716821050106
IDU017,21,ROSSO,GIALLO,0,g,1,568,1716821051198
IDU017,22,BLU,ROSSO,0,r,1,767,1716821052488
IDU017,23,BLU,BLU,1,b,1,551,1716821053563
IDU017,24,GIALLO,GIALLO,1,g,1,552,1716821054638
IDU019,1,GIALLO,GIALLO,1,g,1,1050,1717496497268
IDU019,2,VERDE,VERDE,1,v,1,883,1717496498675
IDU019,3,BLU,VERDE,0,v,1,973,1717496500173
IDU019,4,VERDE,BLU,0,b,1,1001,1717496501698
IDU019,5,GIALLO,ROSSO,0,r,1,1303,1717496503527
IDU019,6,ROSSO,BLU,0,b,1,1091,1717496505150
IDU019,7,ROSSO,ROSSO,1,r,1,870,1717496506543
IDU019,8,GIALLO,BLU,0,b,1,1028,1717496508095
IDU019,9,BLU,BLU,1,b,1,798,1717496509417
IDU019,10,ROSSO,ROSSO,1,r,1,827,1717496510768
IDU019,11,BLU,BLU,1,b,1,656,1717496511953
IDU019,12,ROSSO,ROSSO,1,r,1,752,1717496513229
IDU019,13,GIALLO,GIALLO,1,g,1,616,1717496514369
IDU019,14,VERDE,VERDE,1,v,1,655,1717496515549
IDU019,15,BLU,BLU,1,b,1,679,1717496516751
IDU019,16,GIALLO,GIALLO,1,g,1,841,1717496518129
IDU019,17,VERDE,VERDE,1,v,1,711,1717496519364
IDU019,18,VERDE,GIALLO,0,g,1,904,1717496520792
IDU019,19,VERDE,ROSSO,0,r,1,750,1717496522066
IDU019,20,BLU,ROSSO,0,b,0,772,1717496523362
IDU019,21,ROSSO,VERDE,0,v,1,1646,1717496525532
IDU019,22,GIALLO,VERDE,0,v,1,1260,1717496527315
IDU019,23,ROSSO,GIALLO,0,g,1,1023,1717496528863
IDU019,24,BLU,GIALLO,0,g,1,802,1717496530189
IDU021,1,VERDE,BLU,0,b,1,1265,1721315281395
IDU021,2,ROSSO,ROSSO,1,r,1,978,1721315282898
IDU021,3,ROSSO,VERDE,0,v,1,1041,1721315284461
IDU021,4,VERDE,ROSSO,0,r,1,1204,1721315286190
IDU021,5,GIALLO,BLU,0,b,1,1225,1721315287939
IDU021,6,ROSSO,GIALLO,0,g,1,1163,1721315289626
IDU021,7,BLU,GIALLO,0,g,1,788,1721315290938
IDU021,8,ROSSO,ROSSO,1,r,1,988,1721315292450
IDU021,9,GIALLO,GIALLO,1,g,1,1118,1721315294092
IDU021,10,BLU,ROSSO,0,r,1,1415,1721315296029
IDU021,11,GIALLO,VERDE,0,v,1,1087,1721315297640
IDU021,12,VERDE,VERDE,1,v,1,1001,1721315299165
IDU021,13,VERDE,VERDE,1,v,1,870,1721315300558
IDU021,14,BLU,BLU,1,b,1,902,1721315301983
IDU021,15,BLU,VERDE,0,v,1,1023,1721315303532
IDU021,16,ROSSO,ROSSO,1,r,1,880,1721315304937
IDU021,17,GIALLO,ROSSO,0,r,1,1118,1721315306580
IDU021,18,BLU,BLU,1,b,1,1115,1721315308218
IDU021,19,ROSSO,BLU,0,b,1,878,1721315309619
IDU021,20,BLU,BLU,1,b,1,813,1721315310955
IDU021,21,VERDE,GIALLO,0,g,1,1206,1721315312685
IDU021,22,VERDE,VERDE,1,v,1,786,1721315313995
IDU021,23,GIALLO,GIALLO,1,g,1,888,1721315315406
IDU021,24,GIALLO,GIALLO,1,g,1,803,1721315316732
IDU024,1,ROSSO,GIALLO,0,g,1,1026,1725875159335
IDU024,2,ROSSO,ROSSO,1,r,1,972,1725875160831
IDU024,3,GIALLO,GIALLO,1,g,1,1023,1725875162377
IDU024,4,BLU,BLU,1,b,1,954,1725875163857
IDU024,5,BLU,BLU,1,b,1,857,1725875165239
IDU024,6,ROSSO,BLU,0,b,1,1114,1725875166876
IDU024,7,VERDE,VERDE,1,v,1,929,1725875168330
IDU024,8,GIALLO,VERDE,0,v,1,1115,1725875169969
IDU024,9,GIALLO,ROSSO,0,r,1,1101,1725875171594
IDU024,10,GIALLO,GIALLO,1,g,1,930,1725875173048
IDU024,11,ROSSO,VERDE,0,v,1,1060,1725875174633
IDU024,12,GIALLO,GIALLO,1,g,1,954,1725875176113
IDU024,13,VERDE,BLU,0,b,1,972,1725875177609
IDU024,14,BLU,GIALLO,0,g,1,1002,1725875179136
IDU024,15,GIALLO,BLU,0,b,1,1029,1725875180691
IDU024,16,BLU,BLU,1,b,1,911,1725875182126
IDU024,17,VERDE,GIALLO,0,g,1,1022,1725875183672
IDU024,18,BLU,ROSSO,0,r,1,1043,1725875185240
IDU024,19,BLU,VERDE,0,v,1,1178,1725875186941
IDU024,20,VERDE,VERDE,1,v,1,909,1725875188374
IDU024,21,ROSSO,ROSSO,1,r,1,1060,1725875189960
IDU024,22,VERDE,VERDE,1,v,1,900,1725875191384
IDU024,23,VERDE,ROSSO,0,r,1,1075,1725875192982
IDU024,24,ROSSO,ROSSO,1,r,1,931,1725875194438
IDU025,1,VERDE,VERDE,1,v,1,923,1726566186058
IDU025,2,BLU,GIALLO,0,g,1,1008,1726566187590
IDU025,3,GIALLO,ROSSO,0,r,1,917,1726566189032
IDU025,4,ROSSO,BLU,0,b,1,834,1726566190389
IDU025,5,BLU,VERDE,0,v,1,823,1726566191738
IDU025,6,BLU,BLU,1,b,1,665,1726566192928
IDU025,7,GIALLO,VERDE,0,v,1,1072,1726566194525
IDU025,8,BLU,BLU,1,b,1,759,1726566195809
IDU025,9,BLU,ROSSO,0,r,1,817,1726566197150
IDU025,10,VERDE,ROSSO,0,r,1,681,1726566198356
IDU025,11,ROSSO,ROSSO,1,r,1,656,1726566199537
IDU025,12,GIALLO,GIALLO,1,g,1,816,1726566200877
IDU025,13,BLU,BLU,1,b,1,784,1726566202186
IDU025,14,VERDE,GIALLO,0,g,1,919,1726566203628
IDU025,15,ROSSO,VERDE,0,v,1,941,1726566205093
IDU025,16,GIALLO,GIALLO,1,g,1,910,1726566206528
IDU025,17,ROSSO,ROSSO,1,r,1,873,1726566207924
IDU025,18,ROSSO,GIALLO,0,g,1,845,1726566209294
IDU025,19,GIALLO,BLU,0,b,1,678,1726566210498
IDU025,20,VERDE,VERDE,1,v,1,647,1726566211668
IDU025,21,ROSSO,ROSSO,1,r,1,714,1726566212907
IDU025,22,VERDE,VERDE,1,v,1,735,1726566214166
IDU025,23,VERDE,BLU,0,b,1,589,1726566215278
IDU025,24,GIALLO,GIALLO,1,g,1,677,1726566216479
IDU027,1,GIALLO,GIALLO,1,g,1,722,1726758042205
IDU027,2,BLU,BLU,1,b,1,555,1726758043285
IDU027,3,GIALLO,BLU,0,b,1,669,1726758044479
IDU027,4,BLU,BLU,1,b,1,533,1726758045537
IDU027,5,VERDE,ROSSO,0,r,1,868,1726758046929
IDU027,6,VERDE,VERDE,1,v,1,604,1726758048057
IDU027,7,BLU,VERDE,0,v,1,650,1726758049230
IDU027,8,VERDE,GIALLO,0,g,1,564,1726758050318
IDU027,9,ROSSO,ROSSO,1,r,1,599,1726758051441
IDU027,10,GIALLO,ROSSO,0,r,1,622,1726758052587
IDU027,11,ROSSO,VERDE,0,v,1,863,1726758053975
IDU027,12,ROSSO,ROSSO,1,r,1,722,1726758055221
IDU027,13,ROSSO,ROSSO,1,r,1,530,1726758056277
IDU027,14,VERDE,VERDE,1,v,1,809,1726758057609
IDU027,15,ROSSO,BLU,0,b,1,561,1726758058695
IDU027,16,BLU,ROSSO,0,r,1,692,1726758059911
IDU027,17,GIALLO,VERDE,0,g,0,890,1726758061326
IDU027,18,VERDE,VERDE,1,v,1,726,1726758062576
IDU027,19,BLU,GIALLO,0,g,1,662,1726758063761
IDU027,20,BLU,BLU,1,b,1,665,1726758064951
IDU027,21,GIALLO,GIALLO,1,g,1,626,1726758066101
IDU027,22,ROSSO,GIALLO,0,g,1,562,1726758067187
IDU027,23,GIALLO,GIALLO,1,g,1,555,1726758068265
IDU027,24,VERDE,BLU,0,b,1,493,1726758069282
IDU029,1,BLU,GIALLO,0,g,1,1120,1727183557443
IDU029,2,BLU,BLU,1,b,1,855,1727183558821
IDU029,3,BLU,BLU,1,b,1,597,1727183559942
IDU029,4,VERDE,GIALLO,0,g,1,1047,1727183561515
IDU029,5,GIALLO,GIALLO,1,g,1,1061,1727183563100
IDU029,6,ROSSO,ROSSO,1,r,1,916,1727183564541
IDU029,7,GIALLO,VERDE,0,v,1,1243,1727183566308
IDU029,8,VERDE,BLU,0,b,1,937,1727183567770
IDU029,9,ROSSO,BLU,0,b,1,582,1727183568875
IDU029,10,BLU,ROSSO,0,r,1,826,1727183570226
IDU029,11,GIALLO,ROSSO,0,r,1,575,1727183571323
IDU029,12,ROSSO,ROSSO,1,r,1,477,1727183572325
IDU029,13,VERDE,ROSSO,0,r,1,494,1727183573344
IDU029,14,VERDE,VERDE,1,v,1,861,1727183574728
IDU029,15,VERDE,VERDE,1,v,1,502,1727183575755
IDU029,16,ROSSO,VERDE,0,v,1,574,1727183576853
IDU029,17,ROSSO,ROSSO,1,r,1,813,1727183578191
IDU029,18,BLU,BLU,1,b,1,800,1727183579515
IDU029,19,GIALLO,GIALLO,1,g,1,817,1727183580857
IDU029,20,GIALLO,GIALLO,1,g,1,487,1727183581867
IDU029,21,BLU,VERDE,0,v,1,1073,1727183583464
IDU029,22,VERDE,VERDE,1,v,1,568,1727183584556
IDU029,23,ROSSO,GIALLO,0,g,1,1059,1727183586139
IDU029,24,GIALLO,BLU,0,b,1,1003,1727183587667
IDU031,1,GIALLO,VERDE,0,v,1,814,1727254079781
IDU031,2,VERDE,VERDE,1,v,1,536,1727254080841
IDU031,3,ROSSO,GIALLO,0,g,1,642,1727254082006
IDU031,4,BLU,VERDE,0,v,1,947,1727254083478
IDU031,5,BLU,BLU,1,b,1,1621,1727254085622
IDU031,6,VERDE,VERDE,1,v,1,668,1727254086814
IDU031,7,GIALLO,GIALLO,1,g,1,1047,1727254088384
IDU031,8,ROSSO,BLU,0,b,1,780,1727254089691
IDU031,9,ROSSO,VERDE,0,v,1,869,1727254091085
IDU031,10,BLU,BLU,1,b,1,596,1727254092205
IDU031,11,VERDE,BLU,0,b,1,613,1727254093342
IDU031,12,BLU,GIALLO,0,g,1,596,1727254094462
IDU031,13,BLU,ROSSO,0,r,1,950,1727254095936
IDU031,14,GIALLO,BLU,0,b,1,729,1727254097190
IDU031,15,VERDE,VERDE,1,v,1,580,1727254098295
IDU031,16,ROSSO,ROSSO,1,r,1,764,1727254099584
IDU031,17,GIALLO,GIALLO,1,g,1,563,1727254100671
IDU031,18,GIALLO,ROSSO,0,r,1,593,1727254101789
IDU031,19,GIALLO,GIALLO,1,g,1,600,1727254102912
IDU031,20,VERDE,ROSSO,0,r,1,607,1727254104044
IDU031,21,ROSSO,ROSSO,1,r,1,540,1727254105108
IDU031,22,VERDE,GIALLO,0,g,1,675,1727254106308
IDU031,23,ROSSO,ROSSO,1,r,1,668,1727254107500
IDU031,24,BLU,BLU,1,b,1,602,1727254108625
IDU033,1,BLU,BLU,1,b,1,885,1727443422336
IDU033,2,GIALLO,GIALLO,1,g,1,932,1727443423791
IDU033,3,ROSSO,ROSSO,1,r,1,986,1727443425301
IDU033,4,ROSSO,ROSSO,1,r,1,1265,1727443427090
IDU033,5,VERDE,BLU,0,b,1,1177,1727443428790
IDU033,6,ROSSO,ROSSO,1,r,1,813,1727443430127
IDU033,7,VERDE,VERDE,1,v,1,1011,1727443431661
IDU033,8,VERDE,VERDE,1,v,1,704,1727443432889
IDU033,9,GIALLO,GIALLO,1,g,1,812,1727443434224
IDU033,10,ROSSO,BLU,0,b,1,1091,1727443435840
IDU033,11,GIALLO,VERDE,0,v,1,1461,1727443437824
IDU033,12,GIALLO,GIALLO,1,g,1,755,1727443439104
IDU033,13,BLU,ROSSO,0,r,1,1219,1727443440846
IDU033,14,BLU,GIALLO,0,g,1,2237,1727443443608
IDU033,15,ROSSO,VERDE,0,v,1,1079,1727443445210
IDU033,16,ROSSO,GIALLO,0,g,1,1083,1727443446818
IDU033,17,VERDE,GIALLO,0,g,1,915,1727443448257
IDU033,18,GIALLO,BLU,0,b,1,990,1727443449771
IDU033,19,BLU,VERDE,0,v,1,1277,1727443451572
IDU033,20,BLU,BLU,1,b,1,1473,1727443453569
IDU033,21,VERDE,ROSSO,0,r,1,1064,1727443455156
IDU033,22,VERDE,VERDE,1,v,1,824,1727443456503
IDU033,23,BLU,BLU,1,b,1,961,1727443457987
IDU033,24,GIALLO,ROSSO,0,r,1,1024,1727443459536
IDU035,1,BLU,GIALLO,0,g,1,941,1727775126661
IDU035,2,BLU,BLU,1,b,1,777,1727775127961
IDU035,3,VERDE,BLU,0,b,1,869,1727775129354
IDU035,4,GIALLO,VERDE,0,v,1,1040,1727775130917
IDU035,5,ROSSO,BLU,0,b,1,876,1727775132317
IDU035,6,GIALLO,GIALLO,1,g,1,773,1727775133614
IDU035,7,GIALLO,BLU,0,b,1,920,1727775135057
IDU035,8,ROSSO,GIALLO,0,g,1,683,1727775136264
IDU035,9,GIALLO,ROSSO,0,r,1,1076,1727775137863
IDU035,10,BLU,ROSSO,0,r,1,642,1727775139028
IDU035,11,ROSSO,ROSSO,1,r,1,615,1727775140166
IDU035,12,ROSSO,VERDE,0,v,1,840,1727775141530
IDU035,13,VERDE,VERDE,1,v,1,632,1727775142685
IDU035,14,BLU,VERDE,0,v,1,640,1727775143848
IDU035,15,GIALLO,GIALLO,1,g,1,835,1727775145206
IDU035,16,VERDE,VERDE,1,v,1,702,1727775146433
IDU035,17,VERDE,VERDE,1,v,1,638,1727775147595
IDU035,18,GIALLO,GIALLO,1,g,1,715,1727775148835
IDU035,19,ROSSO,ROSSO,1,r,1,698,1727775150056
IDU035,20,VERDE,GIALLO,0,g,1,840,1727775151419
IDU035,21,BLU,BLU,1,b,1,716,1727775152659
IDU035,22,ROSSO,ROSSO,1,r,1,784,1727775153966
IDU035,23,BLU,BLU,1,b,1,680,1727775155170
IDU035,24,VERDE,ROSSO,0,r,1,833,1727775156526
IDU037,1,BLU,BLU,1,b,1,1718,1728482071603
IDU037,2,BLU,VERDE,0,v,1,1200,1728482073326
IDU037,3,ROSSO,GIALLO,0,g,1,1987,1728482075837
IDU037,4,VERDE,VERDE,1,v,1,1560,1728482077921
IDU037,5,VERDE,BLU,0,b,1,1011,1728482079456
IDU037,6,BLU,ROSSO,0,r,1,1961,1728482081941
IDU037,7,VERDE,GIALLO,0,g,1,1232,1728482083698
IDU037,8,ROSSO,ROSSO,1,r,1,1571,1728482085793
IDU037,9,GIALLO,GIALLO,1,g,1,1732,1728482088049
IDU037,10,ROSSO,VERDE,0,v,1,1637,1728482090211
IDU037,11,BLU,BLU,1,b,1,1819,1728482092554
IDU037,12,GIALLO,BLU,0,b,1,1875,1728482094952
IDU037,13,GIALLO,VERDE,0,v,1,2204,1728482097680
IDU037,14,VERDE,ROSSO,0,r,1,1982,1728482100187
IDU037,15,VERDE,VERDE,1,v,1,1070,1728482101781
IDU037,16,ROSSO,ROSSO,1,r,1,2185,1728482104490
IDU037,17,GIALLO,GIALLO,1,g,1,2279,1728482107294
IDU037,18,VERDE,VERDE,1,v,1,1777,1728482109596
IDU037,19,ROSSO,ROSSO,1,r,1,1818,1728482111938
IDU037,20,GIALLO,ROSSO,0,r,1,1542,1728482114003
IDU037,21,BLU,BLU,1,b,1,1289,1728482115816
IDU037,22,GIALLO,GIALLO,1,g,1,1419,1728482117759
IDU037,23,ROSSO,BLU,0,b,1,1210,1728482119494
IDU037,24,BLU,GIALLO,0,g,1,1147,1728482121165
IDU038,1,BLU,BLU,1,b,1,1347,1728484057269
IDU038,2,VERDE,ROSSO,0,r,1,1573,1728484059366
IDU038,3,GIALLO,ROSSO,0,r,1,1339,1728484061229
IDU038,4,BLU,GIALLO,0,g,1,1181,1728484062933
IDU038,5,VERDE,VERDE,1,v,1,1344,1728484064801
IDU038,6,GIALLO,GIALLO,1,g,1,1143,1728484066467
IDU038,7,VERDE,VERDE,1,v,1,1239,1728484068230
IDU038,8,VERDE,GIALLO,0,g,1,1558,1728484070311
IDU038,9,BLU,VERDE,0,g,0,1478,1728484072313
IDU038,10,ROSSO,GIALLO,0,g,1,1516,1728484074353
IDU038,11,GIALLO,BLU,0,b,1,1765,1728484076643
IDU038,12,BLU,BLU,1,b,1,938,1728484078105
IDU038,13,BLU,ROSSO,0,r,1,1011,1728484079639
IDU038,14,VERDE,VERDE,1,v,1,950,1728484081112
IDU038,15,GIALLO,VERDE,0,v,1,1123,1728484082759
IDU038,16,GIALLO,GIALLO,1,g,1,1541,1728484084824
IDU038,17,ROSSO,ROSSO,1,r,1,1249,1728484086597
IDU038,18,ROSSO,BLU,0,b,1,1341,1728484088462
IDU038,19,VERDE,BLU,0,b,1,1108,1728484090093
IDU038,20,BLU,BLU,1,b,1,806,1728484091423
IDU038,21,ROSSO,ROSSO,1,r,1,1246,1728484093193
IDU038,22,ROSSO,ROSSO,1,r,1,727,1728484094446
IDU038,23,ROSSO,VERDE,0,v,1,1295,1728484096266
IDU038,24,GIALLO,GIALLO,1,g,1,941,1728484097731
IDU040,1,ROSSO,ROSSO,1,r,1,1107,1730392031283
IDU040,2,VERDE,GIALLO,0,g,1,1886,1730392033692
IDU040,3,GIALLO,BLU,0,b,1,1204,1730392035420
IDU040,4,ROSSO,BLU,0,b,1,952,1730392036895
IDU040,5,BLU,ROSSO,0,r,1,1391,1730392038811
IDU040,6,GIALLO,GIALLO,1,g,1,1324,1730392040660
IDU040,7,BLU,VERDE,0,v,1,1760,1730392042943
IDU040,8,GIALLO,ROSSO,0,r,1,1270,1730392044738
IDU040,9,ROSSO,GIALLO,0,g,1,1143,1730392046405
IDU040,10,VERDE,ROSSO,0,r,1,1798,1730392048727
IDU040,11,BLU,GIALLO,0,g,1,1446,1730392050697
IDU040,12,ROSSO,VERDE,0,v,1,1201,1730392052422
IDU040,13,VERDE,BLU,0,b,1,1802,1730392054747
IDU040,14,VERDE,VERDE,1,v,1,2143,1730392057414
IDU040,15,ROSSO,ROSSO,1,r,1,1720,1730392059658
IDU040,16,ROSSO,ROSSO,1,r,1,846,1730392061028
IDU040,17,BLU,BLU,1,b,1,1030,1730392062582
IDU040,18,BLU,BLU,1,b,1,842,1730392063949
IDU040,19,GIALLO,GIALLO,1,g,1,929,1730392065401
IDU040,20,GIALLO,VERDE,0,v,1,1207,1730392067131
IDU040,21,GIALLO,GIALLO,1,g,1,1073,1730392068729
IDU040,22,VERDE,VERDE,1,v,1,971,1730392070224
IDU040,23,VERDE,VERDE,1,v,1,915,1730392071663
IDU040,24,BLU,BLU,1,b,1,971,1730392073157
