SUBJECT,TRIAL,REACTION_TIME,CORRECT,TYPE_OF_TASK
IDU002,1,406,1,0
IDU002,2,345,1,0
IDU002,3,-1,1,0
IDU002,4,327,1,0
IDU002,5,383,1,0
IDU002,6,-1,1,0
IDU002,7,347,1,0
IDU002,8,367,1,0
IDU002,9,348,1,0
IDU002,10,-1,1,0
IDU002,11,413,1,0
IDU002,12,352,1,0
IDU002,13,389,1,0
IDU002,14,349,1,0
IDU002,15,343,1,0
IDU002,16,344,1,0
IDU002,17,350,1,0
IDU002,18,371,1,0
IDU002,19,-1,1,0
IDU002,20,395,1,0
IDU002,21,403,1,0
IDU002,22,342,1,0
IDU002,23,-1,1,0
IDU002,24,307,1,0
IDU002,25,344,1,0
IDU002,26,371,1,0
IDU002,27,392,1,0
IDU002,28,333,1,0
IDU002,29,343,1,0
IDU002,30,-1,1,0
IDU002,31,307,1,0
IDU002,32,-1,1,0
IDU002,33,344,1,0
IDU002,34,356,1,0
IDU002,35,359,1,0
IDU002,36,363,1,0
IDU002,37,-1,1,0
IDU002,38,334,1,0
IDU002,39,369,1,0
IDU002,40,368,1,0
IDU002,41,409,1,0
IDU002,42,-1,1,0
IDU002,43,323,1,0
IDU002,44,-1,1,0
IDU002,45,387,1,0
IDU002,46,-1,1,0
IDU002,47,433,1,0
IDU002,48,559,1,0
IDU002,49,420,1,0
IDU002,50,538,1,0
IDU002,51,365,1,0
IDU002,52,-1,1,0
IDU002,53,428,1,0
IDU002,54,363,1,0
IDU002,55,336,1,0
IDU002,56,358,1,0
IDU002,57,299,1,0
IDU002,58,366,1,0
IDU002,59,279,1,0
IDU002,60,-1,1,0
IDU002,61,320,1,0
IDU002,62,316,1,0
IDU002,63,329,1,0
IDU002,64,-1,1,0
IDU002,65,349,1,0
IDU002,66,332,1,0
IDU002,67,-1,1,0
IDU002,68,326,1,0
IDU002,69,330,1,0
IDU002,70,336,1,0
IDU002,71,297,1,0
IDU002,72,-1,1,0
IDU002,73,379,1,0
IDU002,74,382,1,0
IDU002,75,441,1,0
IDU002,76,321,1,0
IDU002,77,-1,1,0
IDU008,1,323,1,0
IDU008,2,322,1,0
IDU008,3,306,1,0
IDU008,4,-1,1,0
IDU008,5,394,1,0
IDU008,6,364,1,0
IDU008,7,-1,1,0
IDU008,8,306,1,0
IDU008,9,-1,1,0
IDU008,10,371,1,0
IDU008,11,353,1,0
IDU008,12,379,1,0
IDU008,13,-1,1,0
IDU008,14,349,1,0
IDU008,15,326,1,0
IDU008,16,-1,1,0
IDU008,17,328,1,0
IDU008,18,448,1,0
IDU008,19,388,1,0
IDU008,20,314,1,0
IDU008,21,-1,1,0
IDU008,22,343,1,0
IDU008,23,-1,1,0
IDU008,24,384,1,0
IDU008,25,-1,1,0
IDU008,26,324,1,0
IDU008,27,336,1,0
IDU008,28,340,1,0
IDU008,29,-1,1,0
IDU008,30,305,1,0
IDU008,31,282,1,0
IDU008,32,-1,1,0
IDU008,33,358,1,0
IDU008,34,344,1,0
IDU008,35,347,1,0
IDU008,36,344,1,0
IDU008,37,330,1,0
IDU008,38,319,1,0
IDU008,39,419,1,0
IDU008,40,-1,1,0
IDU008,41,305,1,0
IDU008,42,347,1,0
IDU008,43,390,1,0
IDU008,44,-1,1,0
IDU008,45,343,1,0
IDU008,46,332,1,0
IDU008,47,345,1,0
IDU008,48,339,1,0
IDU008,49,308,1,0
IDU008,50,-1,1,0
IDU008,51,319,1,0
IDU008,52,280,1,0
IDU008,53,361,1,0
IDU008,54,312,1,0
IDU008,55,360,1,0
IDU008,56,327,1,0
IDU008,57,341,1,0
IDU008,58,325,0,0
IDU008,59,413,1,0
IDU008,60,351,1,0
IDU008,61,366,1,0
IDU008,62,333,1,0
IDU008,63,-1,1,0
IDU008,64,333,1,0
IDU008,65,315,1,0
IDU008,66,445,1,0
IDU008,67,-1,1,0
IDU008,68,353,1,0
IDU008,69,348,1,0
IDU008,70,375,1,0
IDU008,71,354,1,0
IDU008,72,344,1,0
IDU008,73,387,1,0
IDU008,74,-1,1,0
IDU008,75,322,1,0
IDU008,76,341,1,0
IDU008,77,332,1,0
IDU011,1,368,1,0
IDU011,2,388,1,0
IDU011,3,266,1,0
IDU011,4,297,1,0
IDU011,5,-1,1,0
IDU011,6,287,1,0
IDU011,7,483,0,0
IDU011,8,375,1,0
IDU011,9,-1,1,0
IDU011,10,290,1,0
IDU011,11,430,1,0
IDU011,12,392,1,0
IDU011,13,410,1,0
IDU011,14,-1,1,0
IDU011,15,395,1,0
IDU011,16,399,1,0
IDU011,17,365,1,0
IDU011,18,331,1,0
IDU011,19,-1,1,0
IDU011,20,269,1,0
IDU011,21,422,1,0
IDU011,22,-1,1,0
IDU011,23,281,1,0
IDU011,24,434,1,0
IDU011,25,347,1,0
IDU011,26,300,1,0
IDU011,27,410,1,0
IDU011,28,-1,1,0
IDU011,29,315,1,0
IDU011,30,303,1,0
IDU011,31,343,1,0
IDU011,32,276,1,0
IDU011,33,301,1,0
IDU011,34,258,1,0
IDU011,35,284,1,0
IDU011,36,351,1,0
IDU011,37,236,1,0
IDU011,38,236,1,0
IDU011,39,238,1,0
IDU011,40,315,1,0
IDU011,41,258,1,0
IDU011,42,-1,1,0
IDU011,43,304,1,0
IDU011,44,354,1,0
IDU011,45,265,1,0
IDU011,46,230,1,0
IDU011,47,288,1,0
IDU011,48,-1,1,0
IDU011,49,232,1,0
IDU011,50,311,1,0
IDU011,51,-1,1,0
IDU011,52,315,1,0
IDU011,53,322,1,0
IDU011,54,320,1,0
IDU011,55,-1,1,0
IDU011,56,276,1,0
IDU011,57,315,1,0
IDU011,58,332,1,0
IDU011,59,-1,1,0
IDU011,60,301,1,0
IDU011,61,376,1,0
IDU011,62,312,1,0
IDU011,63,-1,1,0
IDU011,64,216,1,0
IDU011,65,270,1,0
IDU011,66,-1,1,0
IDU011,67,266,1,0
IDU011,68,-1,1,0
IDU011,69,529,1,0
IDU011,70,-1,1,0
IDU011,71,351,1,0
IDU011,72,418,1,0
IDU011,73,-1,1,0
IDU011,74,438,1,0
IDU011,75,454,1,0
IDU011,76,382,1,0
IDU011,77,316,1,0
IDU013,1,542,1,0
IDU013,2,-1,1,0
IDU013,3,396,1,0
IDU013,4,537,1,0
IDU013,5,367,1,0
IDU013,6,394,1,0
IDU013,7,377,1,0
IDU013,8,-1,1,0
IDU013,9,352,1,0
IDU013,10,492,1,0
IDU013,11,368,1,0
IDU013,12,391,1,0
IDU013,13,375,1,0
IDU013,14,345,1,0
IDU013,15,-1,1,0
IDU013,16,333,1,0
IDU013,17,315,1,0
IDU013,18,314,1,0
IDU013,19,-1,1,0
IDU013,20,436,1,0
IDU013,21,371,1,0
IDU013,22,-1,1,0
IDU013,23,412,1,0
IDU013,24,-1,1,0
IDU013,25,334,1,0
IDU013,26,386,1,0
IDU013,27,417,1,0
IDU013,28,459,1,0
IDU013,29,410,1,0
IDU013,30,360,1,0
IDU013,31,279,1,0
IDU013,32,347,1,0
IDU013,33,-1,1,0
IDU013,34,-1,0,0
IDU013,35,0,1,0
IDU013,36,565,1,0
IDU013,37,350,1,0
IDU013,38,325,1,0
IDU013,39,398,1,0
IDU013,40,278,1,0
IDU013,41,274,1,0
IDU013,42,313,1,0
IDU013,43,325,1,0
IDU013,44,307,1,0
IDU013,45,-1,1,0
IDU013,46,632,1,0
IDU013,47,520,1,0
IDU013,48,-1,1,0
IDU013,49,339,1,0
IDU013,50,387,1,0
IDU013,51,0,0,0
IDU013,52,424,1,0
IDU013,53,-1,1,0
IDU013,54,374,1,0
IDU013,55,370,1,0
IDU013,56,423,1,0
IDU013,57,347,1,0
IDU013,58,334,1,0
IDU013,59,-1,1,0
IDU013,60,373,1,0
IDU013,61,384,1,0
IDU013,62,275,1,0
IDU013,63,266,1,0
IDU013,64,-1,1,0
IDU013,65,385,1,0
IDU013,66,282,1,0
IDU013,67,372,1,0
IDU013,68,-1,1,0
IDU013,69,378,1,0
IDU013,70,339,1,0
IDU013,71,566,1,0
IDU013,72,-1,1,0
IDU013,73,336,1,0
IDU013,74,365,1,0
IDU013,75,-1,1,0
IDU013,76,479,1,0
IDU013,77,-1,1,0
IDU015,1,324,1,0
IDU015,2,-1,1,0
IDU015,3,295,1,0
IDU015,4,-1,1,0
IDU015,5,338,1,0
IDU015,6,373,1,0
IDU015,7,382,1,0
IDU015,8,357,1,0
IDU015,9,393,1,0
IDU015,10,543,1,0
IDU015,11,369,1,0
IDU015,12,385,1,0
IDU015,13,346,1,0
IDU015,14,329,1,0
IDU015,15,395,1,0
IDU015,16,-1,1,0
IDU015,17,380,1,0
IDU015,18,343,1,0
IDU015,19,-1,1,0
IDU015,20,320,1,0
IDU015,21,-1,1,0
IDU015,22,319,1,0
IDU015,23,302,1,0
IDU015,24,321,1,0
IDU015,25,-1,1,0
IDU015,26,382,1,0
IDU015,27,279,1,0
IDU015,28,373,1,0
IDU015,29,-1,1,0
IDU015,30,317,1,0
IDU015,31,-1,1,0
IDU015,32,370,1,0
IDU015,33,353,1,0
IDU015,34,292,1,0
IDU015,35,379,1,0
IDU015,36,-1,1,0
IDU015,37,395,1,0
IDU015,38,530,1,0
IDU015,39,-1,1,0
IDU015,40,380,1,0
IDU015,41,311,1,0
IDU015,42,325,1,0
IDU015,43,313,1,0
IDU015,44,342,1,0
IDU015,45,312,1,0
IDU015,46,303,1,0
IDU015,47,-1,1,0
IDU015,48,476,1,0
IDU015,49,304,1,0
IDU015,50,604,1,0
IDU015,51,-1,1,0
IDU015,52,384,1,0
IDU015,53,481,1,0
IDU015,54,293,1,0
IDU015,55,322,1,0
IDU015,56,-1,1,0
IDU015,57,316,1,0
IDU015,58,294,1,0
IDU015,59,301,1,0
IDU015,60,373,1,0
IDU015,61,-1,1,0
IDU015,62,271,1,0
IDU015,63,-1,1,0
IDU015,64,385,1,0
IDU015,65,378,1,0
IDU015,66,-1,1,0
IDU015,67,397,1,0
IDU015,68,328,1,0
IDU015,69,455,1,0
IDU015,70,-1,1,0
IDU015,71,354,1,0
IDU015,72,333,1,0
IDU015,73,320,1,0
IDU015,74,315,1,0
IDU015,75,308,1,0
IDU015,76,308,1,0
IDU015,77,285,1,0
IDU017,1,324,1,0
IDU017,2,-1,1,0
IDU017,3,279,1,0
IDU017,4,324,1,0
IDU017,5,353,1,0
IDU017,6,315,1,0
IDU017,7,-1,1,0
IDU017,8,242,1,0
IDU017,9,254,1,0
IDU017,10,269,1,0
IDU017,11,345,1,0
IDU017,12,251,1,0
IDU017,13,272,1,0
IDU017,14,249,1,0
IDU017,15,265,1,0
IDU017,16,-1,1,0
IDU017,17,261,1,0
IDU017,18,227,1,0
IDU017,19,242,1,0
IDU017,20,-1,1,0
IDU017,21,202,1,0
IDU017,22,235,1,0
IDU017,23,241,1,0
IDU017,24,-1,1,0
IDU017,25,263,1,0
IDU017,26,258,1,0
IDU017,27,264,1,0
IDU017,28,269,1,0
IDU017,29,-1,1,0
IDU017,30,204,1,0
IDU017,31,246,1,0
IDU017,32,257,1,0
IDU017,33,274,1,0
IDU017,34,269,1,0
IDU017,35,266,1,0
IDU017,36,-1,1,0
IDU017,37,284,1,0
IDU017,38,260,0,0
IDU017,39,444,1,0
IDU017,40,254,1,0
IDU017,41,232,1,0
IDU017,42,245,1,0
IDU017,43,251,1,0
IDU017,44,258,1,0
IDU017,45,-1,1,0
IDU017,46,264,1,0
IDU017,47,229,1,0
IDU017,48,302,1,0
IDU017,49,-1,1,0
IDU017,50,307,1,0
IDU017,51,281,1,0
IDU017,52,274,1,0
IDU017,53,284,1,0
IDU017,54,-1,1,0
IDU017,55,233,1,0
IDU017,56,202,1,0
IDU017,57,266,0,0
IDU017,58,282,1,0
IDU017,59,-1,1,0
IDU017,60,350,1,0
IDU017,61,272,1,0
IDU017,62,272,1,0
IDU017,63,323,1,0
IDU017,64,354,1,0
IDU017,65,345,1,0
IDU017,66,304,1,0
IDU017,67,-1,1,0
IDU017,68,259,1,0
IDU017,69,279,1,0
IDU017,70,273,1,0
IDU017,71,-1,1,0
IDU017,72,248,1,0
IDU017,73,-1,1,0
IDU017,74,298,1,0
IDU017,75,242,1,0
IDU017,76,-1,1,0
IDU017,77,242,1,0
IDU019,1,446,1,0
IDU019,2,-1,1,0
IDU019,3,277,1,0
IDU019,4,437,1,0
IDU019,5,-1,1,0
IDU019,6,341,1,0
IDU019,7,345,1,0
IDU019,8,-1,1,0
IDU019,9,270,1,0
IDU019,10,344,1,0
IDU019,11,345,1,0
IDU019,12,387,1,0
IDU019,13,-1,1,0
IDU019,14,295,1,0
IDU019,15,393,1,0
IDU019,16,328,1,0
IDU019,17,354,1,0
IDU019,18,370,1,0
IDU019,19,-1,1,0
IDU019,20,0,1,0
IDU019,21,-1,0,0
IDU019,22,0,1,0
IDU019,23,644,1,0
IDU019,24,466,1,0
IDU019,25,528,1,0
IDU019,26,443,1,0
IDU019,27,-1,1,0
IDU019,28,308,1,0
IDU019,29,362,1,0
IDU019,30,-1,1,0
IDU019,31,271,1,0
IDU019,32,377,1,0
IDU019,33,370,1,0
IDU019,34,359,1,0
IDU019,35,387,1,0
IDU019,36,372,1,0
IDU019,37,351,1,0
IDU019,38,366,1,0
IDU019,39,348,1,0
IDU019,40,344,1,0
IDU019,41,343,1,0
IDU019,42,-1,1,0
IDU019,43,305,1,0
IDU019,44,381,1,0
IDU019,45,-1,1,0
IDU019,46,266,1,0
IDU019,47,315,1,0
IDU019,48,326,1,0
IDU019,49,-1,1,0
IDU019,50,288,1,0
IDU019,51,322,1,0
IDU019,52,-1,1,0
IDU019,53,264,1,0
IDU019,54,414,1,0
IDU019,55,405,1,0
IDU019,56,-1,1,0
IDU019,57,294,1,0
IDU019,58,-1,1,0
IDU019,59,303,1,0
IDU019,60,-1,1,0
IDU019,61,302,1,0
IDU019,62,623,1,0
IDU019,63,-1,1,0
IDU019,64,363,1,0
IDU019,65,349,1,0
IDU019,66,375,1,0
IDU019,67,-1,1,0
IDU019,68,281,1,0
IDU019,69,339,1,0
IDU019,70,362,1,0
IDU019,71,376,1,0
IDU019,72,398,1,0
IDU019,73,369,1,0
IDU019,74,364,1,0
IDU019,75,-1,1,0
IDU019,76,337,1,0
IDU019,77,310,1,0
IDU021,1,403,1,0
IDU021,2,332,1,0
IDU021,3,428,1,0
IDU021,4,436,1,0
IDU021,5,550,1,0
IDU021,6,423,1,0
IDU021,7,432,1,0
IDU021,8,404,1,0
IDU021,9,466,1,0
IDU021,10,-1,1,0
IDU021,11,482,1,0
IDU021,12,395,1,0
IDU021,13,468,1,0
IDU021,14,418,1,0
IDU021,15,-1,1,0
IDU021,16,402,1,0
IDU021,17,482,1,0
IDU021,18,440,1,0
IDU021,19,340,1,0
IDU021,20,-1,1,0
IDU021,21,401,1,0
IDU021,22,-1,1,0
IDU021,23,424,1,0
IDU021,24,-1,1,0
IDU021,25,433,1,0
IDU021,26,477,1,0
IDU021,27,393,1,0
IDU021,28,406,1,0
IDU021,29,-1,1,0
IDU021,30,317,1,0
IDU021,31,-1,1,0
IDU021,32,355,1,0
IDU021,33,-1,1,0
IDU021,34,365,1,0
IDU021,35,403,1,0
IDU021,36,383,1,0
IDU021,37,361,1,0
IDU021,38,404,1,0
IDU021,39,397,1,0
IDU021,40,410,1,0
IDU021,41,446,1,0
IDU021,42,-1,1,0
IDU021,43,458,1,0
IDU021,44,396,1,0
IDU021,45,435,1,0
IDU021,46,419,1,0
IDU021,47,496,1,0
IDU021,48,549,1,0
IDU021,49,-1,1,0
IDU021,50,361,1,0
IDU021,51,446,1,0
IDU021,52,625,1,0
IDU021,53,454,1,0
IDU021,54,-1,1,0
IDU021,55,438,1,0
IDU021,56,386,1,0
IDU021,57,-1,1,0
IDU021,58,401,1,0
IDU021,59,369,1,0
IDU021,60,364,1,0
IDU021,61,365,1,0
IDU021,62,389,1,0
IDU021,63,-1,1,0
IDU021,64,350,1,0
IDU021,65,-1,1,0
IDU021,66,380,1,0
IDU021,67,-1,1,0
IDU021,68,420,1,0
IDU021,69,413,1,0
IDU021,70,390,1,0
IDU021,71,381,1,0
IDU021,72,372,1,0
IDU021,73,389,1,0
IDU021,74,-1,1,0
IDU021,75,495,1,0
IDU021,76,337,1,0
IDU021,77,-1,1,0
IDU024,1,579,1,0
IDU024,2,834,1,0
IDU024,3,490,1,0
IDU024,4,500,1,0
IDU024,5,543,1,0
IDU024,6,957,1,0
IDU024,7,487,1,0
IDU024,8,532,1,0
IDU024,9,-1,1,0
IDU024,10,403,1,0
IDU024,11,-1,1,0
IDU024,12,414,1,0
IDU024,13,432,1,0
IDU024,14,-1,1,0
IDU024,15,446,1,0
IDU024,16,509,1,0
IDU024,17,-1,1,0
IDU024,18,445,1,0
IDU024,19,495,1,0
IDU024,20,-1,1,0
IDU024,21,371,1,0
IDU024,22,415,1,0
IDU024,23,432,1,0
IDU024,24,-1,1,0
IDU024,25,495,1,0
IDU024,26,442,1,0
IDU024,27,436,1,0
IDU024,28,-1,1,0
IDU024,29,415,1,0
IDU024,30,-1,1,0
IDU024,31,375,1,0
IDU024,32,473,1,0
IDU024,33,455,1,0
IDU024,34,431,1,0
IDU024,35,454,1,0
IDU024,36,427,1,0
IDU024,37,429,1,0
IDU024,38,-1,1,0
IDU024,39,404,1,0
IDU024,40,442,1,0
IDU024,41,431,1,0
IDU024,42,391,1,0
IDU024,43,452,1,0
IDU024,44,453,1,0
IDU024,45,415,1,0
IDU024,46,427,1,0
IDU024,47,-1,1,0
IDU024,48,456,1,0
IDU024,49,-1,1,0
IDU024,50,405,1,0
IDU024,51,416,1,0
IDU024,52,-1,1,0
IDU024,53,565,1,0
IDU024,54,421,1,0
IDU024,55,-1,1,0
IDU024,56,454,1,0
IDU024,57,481,1,0
IDU024,58,406,1,0
IDU024,59,441,1,0
IDU024,60,451,1,0
IDU024,61,-1,1,0
IDU024,62,468,1,0
IDU024,63,448,1,0
IDU024,64,421,1,0
IDU024,65,447,1,0
IDU024,66,419,1,0
IDU024,67,-1,1,0
IDU024,68,590,1,0
IDU024,69,496,1,0
IDU024,70,502,1,0
IDU024,71,418,1,0
IDU024,72,495,1,0
IDU024,73,479,1,0
IDU024,74,467,1,0
IDU024,75,-1,1,0
IDU024,76,453,1,0
IDU024,77,-1,1,0
IDU025,1,333,1,0
IDU025,2,278,1,0
IDU025,3,284,1,0
IDU025,4,-1,1,0
IDU025,5,285,1,0
IDU025,6,301,1,0
IDU025,7,418,1,0
IDU025,8,295,1,0
IDU025,9,-1,1,0
IDU025,10,307,1,0
IDU025,11,264,1,0
IDU025,12,269,1,0
IDU025,13,356,1,0
IDU025,14,295,1,0
IDU025,15,263,1,0
IDU025,16,373,1,0
IDU025,17,244,0,0
IDU025,18,291,1,0
IDU025,19,359,1,0
IDU025,20,-1,1,0
IDU025,21,388,1,0
IDU025,22,273,1,0
IDU025,23,297,1,0
IDU025,24,265,0,0
IDU025,25,399,1,0
IDU025,26,299,1,0
IDU025,27,358,1,0
IDU025,28,350,1,0
IDU025,29,354,1,0
IDU025,30,391,1,0
IDU025,31,334,1,0
IDU025,32,308,1,0
IDU025,33,378,1,0
IDU025,34,-1,1,0
IDU025,35,360,1,0
IDU025,36,279,1,0
IDU025,37,313,1,0
IDU025,38,-1,1,0
IDU025,39,282,1,0
IDU025,40,-1,1,0
IDU025,41,365,1,0
IDU025,42,260,1,0
IDU025,43,300,1,0
IDU025,44,307,1,0
IDU025,45,259,1,0
IDU025,46,267,1,0
IDU025,47,-1,1,0
IDU025,48,273,1,0
IDU025,49,257,1,0
IDU025,50,265,1,0
IDU025,51,283,1,0
IDU025,52,283,1,0
IDU025,53,275,1,0
IDU025,54,301,1,0
IDU025,55,260,1,0
IDU025,56,309,1,0
IDU025,57,-1,1,0
IDU025,58,258,1,0
IDU025,59,265,1,0
IDU025,60,256,1,0
IDU025,61,274,0,0
IDU025,62,386,1,0
IDU025,63,-1,1,0
IDU025,64,281,1,0
IDU025,65,260,1,0
IDU025,66,277,1,0
IDU025,67,-1,1,0
IDU025,68,398,1,0
IDU025,69,-1,1,0
IDU025,70,322,1,0
IDU025,71,331,1,0
IDU025,72,310,0,0
IDU025,73,421,1,0
IDU025,74,327,1,0
IDU025,75,-1,1,0
IDU025,76,361,1,0
IDU025,77,-1,1,0
IDU027,1,637,1,0
IDU027,2,-1,1,0
IDU027,3,327,1,0
IDU027,4,-1,1,0
IDU027,5,388,1,0
IDU027,6,-1,0,0
IDU027,7,460,1,0
IDU027,8,326,1,0
IDU027,9,317,1,0
IDU027,10,-1,1,0
IDU027,11,279,1,0
IDU027,12,294,1,0
IDU027,13,-1,1,0
IDU027,14,337,1,0
IDU027,15,290,1,0
IDU027,16,-1,1,0
IDU027,17,313,1,0
IDU027,18,314,1,0
IDU027,19,337,1,0
IDU027,20,320,1,0
IDU027,21,315,1,0
IDU027,22,362,1,0
IDU027,23,-1,1,0
IDU027,24,328,1,0
IDU027,25,286,1,0
IDU027,26,326,1,0
IDU027,27,320,1,0
IDU027,28,299,1,0
IDU027,29,389,1,0
IDU027,30,-1,1,0
IDU027,31,280,1,0
IDU027,32,307,1,0
IDU027,33,301,1,0
IDU027,34,308,1,0
IDU027,35,-1,1,0
IDU027,36,276,1,0
IDU027,37,-1,1,0
IDU027,38,253,1,0
IDU027,39,-1,1,0
IDU027,40,354,1,0
IDU027,41,-1,1,0
IDU027,42,270,1,0
IDU027,43,356,1,0
IDU027,44,-1,1,0
IDU027,45,269,1,0
IDU027,46,-1,1,0
IDU027,47,266,1,0
IDU027,48,300,1,0
IDU027,49,316,1,0
IDU027,50,-1,1,0
IDU027,51,318,1,0
IDU027,52,340,1,0
IDU027,53,300,1,0
IDU027,54,380,1,0
IDU027,55,303,1,0
IDU027,56,311,1,0
IDU027,57,379,1,0
IDU027,58,315,1,0
IDU027,59,-1,1,0
IDU027,60,327,1,0
IDU027,61,278,1,0
IDU027,62,297,1,0
IDU027,63,647,1,0
IDU027,64,325,1,0
IDU027,65,333,1,0
IDU027,66,280,1,0
IDU027,67,313,1,0
IDU027,68,295,1,0
IDU027,69,-1,1,0
IDU027,70,299,1,0
IDU027,71,270,1,0
IDU027,72,265,1,0
IDU027,73,290,1,0
IDU027,74,334,1,0
IDU027,75,257,1,0
IDU027,76,-1,1,0
IDU027,77,253,1,0
IDU029,1,392,1,0
IDU029,2,386,1,0
IDU029,3,413,1,0
IDU029,4,406,1,0
IDU029,5,380,1,0
IDU029,6,-1,1,0
IDU029,7,441,1,0
IDU029,8,375,1,0
IDU029,9,-1,1,0
IDU029,10,367,1,0
IDU029,11,-1,1,0
IDU029,12,432,1,0
IDU029,13,490,1,0
IDU029,14,465,1,0
IDU029,15,413,1,0
IDU029,16,-1,1,0
IDU029,17,437,1,0
IDU029,18,-1,1,0
IDU029,19,365,1,0
IDU029,20,365,1,0
IDU029,21,361,1,0
IDU029,22,356,1,0
IDU029,23,357,1,0
IDU029,24,331,1,0
IDU029,25,-1,1,0
IDU029,26,406,1,0
IDU029,27,-1,1,0
IDU029,28,414,1,0
IDU029,29,-1,1,0
IDU029,30,341,1,0
IDU029,31,-1,1,0
IDU029,32,415,1,0
IDU029,33,454,1,0
IDU029,34,-1,1,0
IDU029,35,410,1,0
IDU029,36,-1,1,0
IDU029,37,405,1,0
IDU029,38,374,1,0
IDU029,39,-1,1,0
IDU029,40,330,1,0
IDU029,41,475,1,0
IDU029,42,343,1,0
IDU029,43,334,1,0
IDU029,44,349,1,0
IDU029,45,-1,1,0
IDU029,46,370,1,0
IDU029,47,417,1,0
IDU029,48,379,1,0
IDU029,49,-1,1,0
IDU029,50,307,1,0
IDU029,51,311,1,0
IDU029,52,343,1,0
IDU029,53,343,1,0
IDU029,54,382,1,0
IDU029,55,335,1,0
IDU029,56,328,1,0
IDU029,57,384,1,0
IDU029,58,396,1,0
IDU029,59,366,1,0
IDU029,60,356,1,0
IDU029,61,382,1,0
IDU029,62,379,1,0
IDU029,63,-1,1,0
IDU029,64,437,1,0
IDU029,65,363,1,0
IDU029,66,358,1,0
IDU029,67,611,1,0
IDU029,68,324,1,0
IDU029,69,359,1,0
IDU029,70,327,1,0
IDU029,71,-1,1,0
IDU029,72,397,1,0
IDU029,73,374,1,0
IDU029,74,-1,1,0
IDU029,75,317,1,0
IDU029,76,330,1,0
IDU029,77,319,1,0
IDU031,1,321,1,0
IDU031,2,-1,1,0
IDU031,3,295,1,0
IDU031,4,567,1,0
IDU031,5,-1,1,0
IDU031,6,306,1,0
IDU031,7,-1,1,0
IDU031,8,304,1,0
IDU031,9,414,1,0
IDU031,10,362,1,0
IDU031,11,405,1,0
IDU031,12,-1,1,0
IDU031,13,250,1,0
IDU031,14,322,1,0
IDU031,15,371,1,0
IDU031,16,-1,1,0
IDU031,17,268,1,0
IDU031,18,296,1,0
IDU031,19,305,1,0
IDU031,20,409,1,0
IDU031,21,338,1,0
IDU031,22,-1,1,0
IDU031,23,291,1,0
IDU031,24,304,1,0
IDU031,25,275,1,0
IDU031,26,297,1,0
IDU031,27,324,1,0
IDU031,28,327,1,0
IDU031,29,-1,1,0
IDU031,30,243,1,0
IDU031,31,259,1,0
IDU031,32,-1,1,0
IDU031,33,248,1,0
IDU031,34,305,1,0
IDU031,35,313,1,0
IDU031,36,333,1,0
IDU031,37,-1,1,0
IDU031,38,252,1,0
IDU031,39,285,1,0
IDU031,40,281,1,0
IDU031,41,312,1,0
IDU031,42,304,1,0
IDU031,43,307,1,0
IDU031,44,374,1,0
IDU031,45,295,1,0
IDU031,46,271,1,0
IDU031,47,338,1,0
IDU031,48,280,1,0
IDU031,49,-1,1,0
IDU031,50,320,1,0
IDU031,51,290,1,0
IDU031,52,369,1,0
IDU031,53,-1,1,0
IDU031,54,327,1,0
IDU031,55,313,1,0
IDU031,56,349,1,0
IDU031,57,324,1,0
IDU031,58,-1,1,0
IDU031,59,682,1,0
IDU031,60,-1,1,0
IDU031,61,320,1,0
IDU031,62,313,1,0
IDU031,63,331,1,0
IDU031,64,-1,1,0
IDU031,65,242,1,0
IDU031,66,241,1,0
IDU031,67,-1,1,0
IDU031,68,265,1,0
IDU031,69,-1,1,0
IDU031,70,259,1,0
IDU031,71,289,1,0
IDU031,72,267,1,0
IDU031,73,-1,1,0
IDU031,74,313,1,0
IDU031,75,281,1,0
IDU031,76,279,1,0
IDU031,77,326,1,0
IDU033,1,355,1,0
IDU033,2,419,1,0
IDU033,3,-1,1,0
IDU033,4,361,1,0
IDU033,5,-1,1,0
IDU033,6,278,1,0
IDU033,7,376,1,0
IDU033,8,319,1,0
IDU033,9,283,1,0
IDU033,10,-1,1,0
IDU033,11,245,1,0
IDU033,12,335,1,0
IDU033,13,339,1,0
IDU033,14,312,1,0
IDU033,15,-1,1,0
IDU033,16,287,1,0
IDU033,17,304,1,0
IDU033,18,369,1,0
IDU033,19,391,1,0
IDU033,20,-1,1,0
IDU033,21,473,1,0
IDU033,22,301,1,0
IDU033,23,-1,1,0
IDU033,24,278,1,0
IDU033,25,418,1,0
IDU033,26,325,1,0
IDU033,27,411,1,0
IDU033,28,422,1,0
IDU033,29,392,1,0
IDU033,30,359,1,0
IDU033,31,-1,1,0
IDU033,32,266,1,0
IDU033,33,-1,1,0
IDU033,34,268,1,0
IDU033,35,335,1,0
IDU033,36,307,1,0
IDU033,37,341,1,0
IDU033,38,-1,1,0
IDU033,39,270,1,0
IDU033,40,311,1,0
IDU033,41,328,1,0
IDU033,42,-1,1,0
IDU033,43,335,1,0
IDU033,44,-1,1,0
IDU033,45,399,1,0
IDU033,46,-1,1,0
IDU033,47,347,1,0
IDU033,48,334,1,0
IDU033,49,316,1,0
IDU033,50,319,1,0
IDU033,51,-1,1,0
IDU033,52,295,1,0
IDU033,53,-1,1,0
IDU033,54,313,1,0
IDU033,55,393,1,0
IDU033,56,333,1,0
IDU033,57,334,1,0
IDU033,58,324,1,0
IDU033,59,307,1,0
IDU033,60,343,1,0
IDU033,61,-1,1,0
IDU033,62,284,1,0
IDU033,63,294,1,0
IDU033,64,333,1,0
IDU033,65,306,1,0
IDU033,66,272,1,0
IDU033,67,-1,1,0
IDU033,68,295,1,0
IDU033,69,375,1,0
IDU033,70,0,1,0
IDU033,71,384,1,0
IDU033,72,359,1,0
IDU033,73,329,1,0
IDU033,74,-1,1,0
IDU033,75,321,1,0
IDU033,76,507,1,0
IDU033,77,293,1,0
IDU035,1,570,1,0
IDU035,2,643,1,0
IDU035,3,406,1,0
IDU035,4,-1,1,0
IDU035,5,452,1,0
IDU035,6,382,1,0
IDU035,7,387,1,0
IDU035,8,-1,1,0
IDU035,9,334,1,0
IDU035,10,331,1,0
IDU035,11,-1,1,0
IDU035,12,272,1,0
IDU035,13,312,1,0
IDU035,14,-1,1,0
IDU035,15,328,1,0
IDU035,16,284,1,0
IDU035,17,310,1,0
IDU035,18,272,1,0
IDU035,19,319,1,0
IDU035,20,299,1,0
IDU035,21,316,1,0
IDU035,22,375,1,0
IDU035,23,-1,1,0
IDU035,24,438,1,0
IDU035,25,358,1,0
IDU035,26,887,1,0
IDU035,27,405,1,0
IDU035,28,-1,1,0
IDU035,29,335,1,0
IDU035,30,-1,1,0
IDU035,31,332,1,0
IDU035,32,321,1,0
IDU035,33,321,1,0
IDU035,34,-1,1,0
IDU035,35,261,1,0
IDU035,36,265,1,0
IDU035,37,-1,1,0
IDU035,38,359,1,0
IDU035,39,-1,1,0
IDU035,40,334,1,0
IDU035,41,374,1,0
IDU035,42,328,1,0
IDU035,43,312,1,0
IDU035,44,341,1,0
IDU035,45,381,1,0
IDU035,46,358,1,0
IDU035,47,315,1,0
IDU035,48,355,1,0
IDU035,49,358,1,0
IDU035,50,388,1,0
IDU035,51,349,1,0
IDU035,52,339,1,0
IDU035,53,316,1,0
IDU035,54,333,1,0
IDU035,55,317,1,0
IDU035,56,-1,1,0
IDU035,57,316,1,0
IDU035,58,315,1,0
IDU035,59,-1,1,0
IDU035,60,333,1,0
IDU035,61,276,1,0
IDU035,62,269,1,0
IDU035,63,288,1,0
IDU035,64,285,1,0
IDU035,65,307,1,0
IDU035,66,-1,1,0
IDU035,67,329,1,0
IDU035,68,382,1,0
IDU035,69,-1,1,0
IDU035,70,310,1,0
IDU035,71,332,1,0
IDU035,72,-1,1,0
IDU035,73,271,1,0
IDU035,74,-1,1,0
IDU035,75,318,1,0
IDU035,76,-1,1,0
IDU035,77,305,1,0
IDU037,1,643,1,0
IDU037,2,493,1,0
IDU037,3,359,1,0
IDU037,4,358,1,0
IDU037,5,311,1,0
IDU037,6,323,1,0
IDU037,7,-1,1,0
IDU037,8,337,1,0
IDU037,9,-1,1,0
IDU037,10,301,1,0
IDU037,11,452,1,0
IDU037,12,363,1,0
IDU037,13,334,1,0
IDU037,14,342,1,0
IDU037,15,333,1,0
IDU037,16,342,1,0
IDU037,17,321,1,0
IDU037,18,-1,1,0
IDU037,19,344,1,0
IDU037,20,335,1,0
IDU037,21,-1,1,0
IDU037,22,322,1,0
IDU037,23,419,1,0
IDU037,24,391,1,0
IDU037,25,-1,1,0
IDU037,26,427,1,0
IDU037,27,443,1,0
IDU037,28,425,1,0
IDU037,29,355,1,0
IDU037,30,-1,1,0
IDU037,31,330,1,0
IDU037,32,404,1,0
IDU037,33,368,1,0
IDU037,34,-1,1,0
IDU037,35,482,1,0
IDU037,36,391,1,0
IDU037,37,307,1,0
IDU037,38,-1,1,0
IDU037,39,312,1,0
IDU037,40,336,1,0
IDU037,41,-1,1,0
IDU037,42,338,1,0
IDU037,43,-1,1,0
IDU037,44,450,1,0
IDU037,45,447,1,0
IDU037,46,318,1,0
IDU037,47,345,1,0
IDU037,48,349,1,0
IDU037,49,-1,1,0
IDU037,50,369,1,0
IDU037,51,-1,1,0
IDU037,52,394,1,0
IDU037,53,393,1,0
IDU037,54,364,1,0
IDU037,55,367,1,0
IDU037,56,336,1,0
IDU037,57,320,1,0
IDU037,58,-1,1,0
IDU037,59,314,1,0
IDU037,60,298,1,0
IDU037,61,296,1,0
IDU037,62,261,1,0
IDU037,63,294,0,0
IDU037,64,918,1,0
IDU037,65,337,1,0
IDU037,66,324,1,0
IDU037,67,360,1,0
IDU037,68,-1,1,0
IDU037,69,465,1,0
IDU037,70,369,1,0
IDU037,71,-1,1,0
IDU037,72,369,1,0
IDU037,73,342,1,0
IDU037,74,-1,1,0
IDU037,75,310,1,0
IDU037,76,389,1,0
IDU037,77,336,1,0
IDU038,1,487,1,0
IDU038,2,466,1,0
IDU038,3,-1,1,0
IDU038,4,369,1,0
IDU038,5,604,1,0
IDU038,6,432,1,0
IDU038,7,-1,1,0
IDU038,8,351,1,0
IDU038,9,491,1,0
IDU038,10,456,1,0
IDU038,11,-1,1,0
IDU038,12,312,1,0
IDU038,13,451,1,0
IDU038,14,439,1,0
IDU038,15,589,1,0
IDU038,16,418,1,0
IDU038,17,463,1,0
IDU038,18,409,1,0
IDU038,19,410,1,0
IDU038,20,-1,1,0
IDU038,21,395,1,0
IDU038,22,547,1,0
IDU038,23,407,1,0
IDU038,24,368,1,0
IDU038,25,-1,1,0
IDU038,26,374,1,0
IDU038,27,-1,1,0
IDU038,28,329,1,0
IDU038,29,484,1,0
IDU038,30,407,1,0
IDU038,31,492,1,0
IDU038,32,468,1,0
IDU038,33,465,1,0
IDU038,34,418,1,0
IDU038,35,-1,1,0
IDU038,36,404,1,0
IDU038,37,352,1,0
IDU038,38,348,1,0
IDU038,39,-1,1,0
IDU038,40,321,1,0
IDU038,41,-1,1,0
IDU038,42,402,1,0
IDU038,43,634,1,0
IDU038,44,379,1,0
IDU038,45,365,1,0
IDU038,46,-1,1,0
IDU038,47,0,1,0
IDU038,48,451,1,0
IDU038,49,371,1,0
IDU038,50,710,1,0
IDU038,51,-1,1,0
IDU038,52,336,1,0
IDU038,53,378,1,0
IDU038,54,-1,1,0
IDU038,55,327,1,0
IDU038,56,437,1,0
IDU038,57,471,1,0
IDU038,58,440,1,0
IDU038,59,-1,1,0
IDU038,60,325,1,0
IDU038,61,369,1,0
IDU038,62,-1,1,0
IDU038,63,372,1,0
IDU038,64,437,1,0
IDU038,65,-1,1,0
IDU038,66,358,1,0
IDU038,67,-1,1,0
IDU038,68,394,1,0
IDU038,69,341,1,0
IDU038,70,-1,1,0
IDU038,71,363,1,0
IDU038,72,380,1,0
IDU038,73,385,1,0
IDU038,74,383,1,0
IDU038,75,400,1,0
IDU038,76,401,1,0
IDU038,77,427,1,0
IDU040,1,844,1,0
IDU040,2,835,1,0
IDU040,3,-1,1,0
IDU040,4,684,1,0
IDU040,5,777,1,0
IDU040,6,775,1,0
IDU040,7,787,1,0
IDU040,8,837,1,0
IDU040,9,817,1,0
IDU040,10,854,1,0
IDU040,11,699,1,0
IDU040,12,767,1,0
IDU040,13,-1,1,0
IDU040,14,596,1,0
IDU040,15,-1,1,0
IDU040,16,702,1,0
IDU040,17,-1,1,0
IDU040,18,658,1,0
IDU040,19,760,1,0
IDU040,20,737,1,0
IDU040,21,-1,1,0
IDU040,22,617,1,0
IDU040,23,-1,1,0
IDU040,24,620,1,0
IDU040,25,637,1,0
IDU040,26,736,1,0
IDU040,27,690,1,0
IDU040,28,-1,1,0
IDU040,29,735,1,0
IDU040,30,597,1,0
IDU040,31,587,1,0
IDU040,32,-1,1,0
IDU040,33,585,1,0
IDU040,34,513,1,0
IDU040,35,489,1,0
IDU040,36,-1,1,0
IDU040,37,458,1,0
IDU040,38,515,1,0
IDU040,39,482,1,0
IDU040,40,442,1,0
IDU040,41,-1,1,0
IDU040,42,428,1,0
IDU040,43,588,1,0
IDU040,44,525,1,0
IDU040,45,638,1,0
IDU040,46,555,1,0
IDU040,47,-1,1,0
IDU040,48,732,1,0
IDU040,49,596,1,0
IDU040,50,628,1,0
IDU040,51,668,1,0
IDU040,52,593,1,0
IDU040,53,510,1,0
IDU040,54,-1,1,0
IDU040,55,597,1,0
IDU040,56,603,1,0
IDU040,57,468,1,0
IDU040,58,511,1,0
IDU040,59,520,1,0
IDU040,60,514,1,0
IDU040,61,650,1,0
IDU040,62,554,1,0
IDU040,63,497,1,0
IDU040,64,-1,1,0
IDU040,65,638,1,0
IDU040,66,593,1,0
IDU040,67,548,1,0
IDU040,68,-1,1,0
IDU040,69,564,1,0
IDU040,70,-1,1,0
IDU040,71,382,1,0
IDU040,72,576,1,0
IDU040,73,-1,1,0
IDU040,74,479,1,0
IDU040,75,542,1,0
IDU040,76,-1,1,0
IDU040,77,405,1,0
IDU002,1,1078,1,1
IDU002,2,616,1,1
IDU002,3,949,1,1
IDU002,4,453,1,1
IDU002,5,751,1,1
IDU002,6,612,1,1
IDU002,7,811,1,1
IDU002,8,497,1,1
IDU002,9,798,1,1
IDU002,10,770,1,1
IDU002,11,497,1,1
IDU002,12,654,1,1
IDU002,13,833,1,1
IDU002,14,1087,1,1
IDU002,15,662,1,1
IDU002,16,765,1,1
IDU002,17,674,1,1
IDU002,18,959,1,1
IDU002,19,662,1,1
IDU002,20,755,1,1
IDU002,21,707,1,1
IDU002,22,589,1,1
IDU002,23,716,1,1
IDU002,24,633,1,1
IDU008,1,1195,1,1
IDU008,2,1123,1,1
IDU008,3,1416,1,1
IDU008,4,924,1,1
IDU008,5,968,1,1
IDU008,6,1007,1,1
IDU008,7,861,1,1
IDU008,8,935,1,1
IDU008,9,902,1,1
IDU008,10,1063,1,1
IDU008,11,944,1,1
IDU008,12,969,1,1
IDU008,13,937,1,1
IDU008,14,806,1,1
IDU008,15,905,1,1
IDU008,16,1116,1,1
IDU008,17,833,1,1
IDU008,18,914,1,1
IDU008,19,778,1,1
IDU008,20,1010,1,1
IDU008,21,894,1,1
IDU008,22,797,1,1
IDU008,23,947,1,1
IDU008,24,1512,1,1
IDU011,1,900,1,1
IDU011,2,2281,1,1
IDU011,3,995,1,1
IDU011,4,1783,1,1
IDU011,5,1141,1,1
IDU011,6,893,1,1
IDU011,7,946,1,1
IDU011,8,919,1,1
IDU011,9,1120,1,1
IDU011,10,949,1,1
IDU011,11,1089,1,1
IDU011,12,1476,1,1
IDU011,13,1113,1,1
IDU011,14,765,1,1
IDU011,15,1190,1,1
IDU011,16,1263,1,1
IDU011,17,816,1,1
IDU011,18,1097,1,1
IDU011,19,901,1,1
IDU011,20,890,1,1
IDU011,21,1445,1,1
IDU011,22,1029,1,1
IDU011,23,961,1,1
IDU011,24,979,1,1
IDU013,1,1634,1,1
IDU013,2,1250,1,1
IDU013,3,872,1,1
IDU013,4,947,1,1
IDU013,5,1186,1,1
IDU013,6,1257,1,1
IDU013,7,783,1,1
IDU013,8,867,1,1
IDU013,9,698,1,1
IDU013,10,917,1,1
IDU013,11,921,1,1
IDU013,12,1023,1,1
IDU013,13,1320,1,1
IDU013,14,1193,1,1
IDU013,15,1396,1,1
IDU013,16,1269,1,1
IDU013,17,1065,1,1
IDU013,18,884,1,1
IDU013,19,1564,1,1
IDU013,20,980,1,1
IDU013,21,860,1,1
IDU013,22,1532,1,1
IDU013,23,1352,1,1
IDU013,24,1615,1,1
IDU015,1,849,1,1
IDU015,2,727,1,1
IDU015,3,820,1,1
IDU015,4,734,1,1
IDU015,5,430,1,1
IDU015,6,833,1,1
IDU015,7,716,1,1
IDU015,8,809,1,1
IDU015,9,1022,1,1
IDU015,10,450,1,1
IDU015,11,690,1,1
IDU015,12,674,1,1
IDU015,13,852,1,1
IDU015,14,809,1,1
IDU015,15,617,1,1
IDU015,16,447,1,1
IDU015,17,1033,1,1
IDU015,18,585,1,1
IDU015,19,572,1,1
IDU015,20,667,1,1
IDU015,21,879,1,1
IDU015,22,690,1,1
IDU015,23,611,1,1
IDU015,24,865,1,1
IDU017,1,831,0,1
IDU017,2,929,1,1
IDU017,3,757,1,1
IDU017,4,874,1,1
IDU017,5,1229,1,1
IDU017,6,942,1,1
IDU017,7,486,1,1
IDU017,8,479,1,1
IDU017,9,591,1,1
IDU017,10,609,1,1
IDU017,11,595,0,1
IDU017,12,604,1,1
IDU017,13,647,1,1
IDU017,14,406,1,1
IDU017,15,530,1,1
IDU017,16,582,1,1
IDU017,17,777,1,1
IDU017,18,787,1,1
IDU017,19,769,1,1
IDU017,20,569,1,1
IDU017,21,568,1,1
IDU017,22,767,1,1
IDU017,23,551,1,1
IDU017,24,552,1,1
IDU019,1,1050,1,1
IDU019,2,883,1,1
IDU019,3,973,1,1
IDU019,4,1001,1,1
IDU019,5,1303,1,1
IDU019,6,1091,1,1
IDU019,7,870,1,1
IDU019,8,1028,1,1
IDU019,9,798,1,1
IDU019,10,827,1,1
IDU019,11,656,1,1
IDU019,12,752,1,1
IDU019,13,616,1,1
IDU019,14,655,1,1
IDU019,15,679,1,1
IDU019,16,841,1,1
IDU019,17,711,1,1
IDU019,18,904,1,1
IDU019,19,750,1,1
IDU019,20,772,0,1
IDU019,21,1646,1,1
IDU019,22,1260,1,1
IDU019,23,1023,1,1
IDU019,24,802,1,1
IDU021,1,1265,1,1
IDU021,2,978,1,1
IDU021,3,1041,1,1
IDU021,4,1204,1,1
IDU021,5,1225,1,1
IDU021,6,1163,1,1
IDU021,7,788,1,1
IDU021,8,988,1,1
IDU021,9,1118,1,1
IDU021,10,1415,1,1
IDU021,11,1087,1,1
IDU021,12,1001,1,1
IDU021,13,870,1,1
IDU021,14,902,1,1
IDU021,15,1023,1,1
IDU021,16,880,1,1
IDU021,17,1118,1,1
IDU021,18,1115,1,1
IDU021,19,878,1,1
IDU021,20,813,1,1
IDU021,21,1206,1,1
IDU021,22,786,1,1
IDU021,23,888,1,1
IDU021,24,803,1,1
IDU024,1,1026,1,1
IDU024,2,972,1,1
IDU024,3,1023,1,1
IDU024,4,954,1,1
IDU024,5,857,1,1
IDU024,6,1114,1,1
IDU024,7,929,1,1
IDU024,8,1115,1,1
IDU024,9,1101,1,1
IDU024,10,930,1,1
IDU024,11,1060,1,1
IDU024,12,954,1,1
IDU024,13,972,1,1
IDU024,14,1002,1,1
IDU024,15,1029,1,1
IDU024,16,911,1,1
IDU024,17,1022,1,1
IDU024,18,1043,1,1
IDU024,19,1178,1,1
IDU024,20,909,1,1
IDU024,21,1060,1,1
IDU024,22,900,1,1
IDU024,23,1075,1,1
IDU024,24,931,1,1
IDU025,1,923,1,1
IDU025,2,1008,1,1
IDU025,3,917,1,1
IDU025,4,834,1,1
IDU025,5,823,1,1
IDU025,6,665,1,1
IDU025,7,1072,1,1
IDU025,8,759,1,1
IDU025,9,817,1,1
IDU025,10,681,1,1
IDU025,11,656,1,1
IDU025,12,816,1,1
IDU025,13,784,1,1
IDU025,14,919,1,1
IDU025,15,941,1,1
IDU025,16,910,1,1
IDU025,17,873,1,1
IDU025,18,845,1,1
IDU025,19,678,1,1
IDU025,20,647,1,1
IDU025,21,714,1,1
IDU025,22,735,1,1
IDU025,23,589,1,1
IDU025,24,677,1,1
IDU027,1,722,1,1
IDU027,2,555,1,1
IDU027,3,669,1,1
IDU027,4,533,1,1
IDU027,5,868,1,1
IDU027,6,604,1,1
IDU027,7,650,1,1
IDU027,8,564,1,1
IDU027,9,599,1,1
IDU027,10,622,1,1
IDU027,11,863,1,1
IDU027,12,722,1,1
IDU027,13,530,1,1
IDU027,14,809,1,1
IDU027,15,561,1,1
IDU027,16,692,1,1
IDU027,17,890,0,1
IDU027,18,726,1,1
IDU027,19,662,1,1
IDU027,20,665,1,1
IDU027,21,626,1,1
IDU027,22,562,1,1
IDU027,23,555,1,1
IDU027,24,493,1,1
IDU029,1,1120,1,1
IDU029,2,855,1,1
IDU029,3,597,1,1
IDU029,4,1047,1,1
IDU029,5,1061,1,1
IDU029,6,916,1,1
IDU029,7,1243,1,1
IDU029,8,937,1,1
IDU029,9,582,1,1
IDU029,10,826,1,1
IDU029,11,575,1,1
IDU029,12,477,1,1
IDU029,13,494,1,1
IDU029,14,861,1,1
IDU029,15,502,1,1
IDU029,16,574,1,1
IDU029,17,813,1,1
IDU029,18,800,1,1
IDU029,19,817,1,1
IDU029,20,487,1,1
IDU029,21,1073,1,1
IDU029,22,568,1,1
IDU029,23,1059,1,1
IDU029,24,1003,1,1
IDU031,1,814,1,1
IDU031,2,536,1,1
IDU031,3,642,1,1
IDU031,4,947,1,1
IDU031,5,1621,1,1
IDU031,6,668,1,1
IDU031,7,1047,1,1
IDU031,8,780,1,1
IDU031,9,869,1,1
IDU031,10,596,1,1
IDU031,11,613,1,1
IDU031,12,596,1,1
IDU031,13,950,1,1
IDU031,14,729,1,1
IDU031,15,580,1,1
IDU031,16,764,1,1
IDU031,17,563,1,1
IDU031,18,593,1,1
IDU031,19,600,1,1
IDU031,20,607,1,1
IDU031,21,540,1,1
IDU031,22,675,1,1
IDU031,23,668,1,1
IDU031,24,602,1,1
IDU033,1,885,1,1
IDU033,2,932,1,1
IDU033,3,986,1,1
IDU033,4,1265,1,1
IDU033,5,1177,1,1
IDU033,6,813,1,1
IDU033,7,1011,1,1
IDU033,8,704,1,1
IDU033,9,812,1,1
IDU033,10,1091,1,1
IDU033,11,1461,1,1
IDU033,12,755,1,1
IDU033,13,1219,1,1
IDU033,14,2237,1,1
IDU033,15,1079,1,1
IDU033,16,1083,1,1
IDU033,17,915,1,1
IDU033,18,990,1,1
IDU033,19,1277,1,1
IDU033,20,1473,1,1
IDU033,21,1064,1,1
IDU033,22,824,1,1
IDU033,23,961,1,1
IDU033,24,1024,1,1
IDU035,1,941,1,1
IDU035,2,777,1,1
IDU035,3,869,1,1
IDU035,4,1040,1,1
IDU035,5,876,1,1
IDU035,6,773,1,1
IDU035,7,920,1,1
IDU035,8,683,1,1
IDU035,9,1076,1,1
IDU035,10,642,1,1
IDU035,11,615,1,1
IDU035,12,840,1,1
IDU035,13,632,1,1
IDU035,14,640,1,1
IDU035,15,835,1,1
IDU035,16,702,1,1
IDU035,17,638,1,1
IDU035,18,715,1,1
IDU035,19,698,1,1
IDU035,20,840,1,1
IDU035,21,716,1,1
IDU035,22,784,1,1
IDU035,23,680,1,1
IDU035,24,833,1,1
IDU037,1,1718,1,1
IDU037,2,1200,1,1
IDU037,3,1987,1,1
IDU037,4,1560,1,1
IDU037,5,1011,1,1
IDU037,6,1961,1,1
IDU037,7,1232,1,1
IDU037,8,1571,1,1
IDU037,9,1732,1,1
IDU037,10,1637,1,1
IDU037,11,1819,1,1
IDU037,12,1875,1,1
IDU037,13,2204,1,1
IDU037,14,1982,1,1
IDU037,15,1070,1,1
IDU037,16,2185,1,1
IDU037,17,2279,1,1
IDU037,18,1777,1,1
IDU037,19,1818,1,1
IDU037,20,1542,1,1
IDU037,21,1289,1,1
IDU037,22,1419,1,1
IDU037,23,1210,1,1
IDU037,24,1147,1,1
IDU038,1,1347,1,1
IDU038,2,1573,1,1
IDU038,3,1339,1,1
IDU038,4,1181,1,1
IDU038,5,1344,1,1
IDU038,6,1143,1,1
IDU038,7,1239,1,1
IDU038,8,1558,1,1
IDU038,9,1478,0,1
IDU038,10,1516,1,1
IDU038,11,1765,1,1
IDU038,12,938,1,1
IDU038,13,1011,1,1
IDU038,14,950,1,1
IDU038,15,1123,1,1
IDU038,16,1541,1,1
IDU038,17,1249,1,1
IDU038,18,1341,1,1
IDU038,19,1108,1,1
IDU038,20,806,1,1
IDU038,21,1246,1,1
IDU038,22,727,1,1
IDU038,23,1295,1,1
IDU038,24,941,1,1
IDU040,1,1107,1,1
IDU040,2,1886,1,1
IDU040,3,1204,1,1
IDU040,4,952,1,1
IDU040,5,1391,1,1
IDU040,6,1324,1,1
IDU040,7,1760,1,1
IDU040,8,1270,1,1
IDU040,9,1143,1,1
IDU040,10,1798,1,1
IDU040,11,1446,1,1
IDU040,12,1201,1,1
IDU040,13,1802,1,1
IDU040,14,2143,1,1
IDU040,15,1720,1,1
IDU040,16,846,1,1
IDU040,17,1030,1,1
IDU040,18,842,1,1
IDU040,19,929,1,1
IDU040,20,1207,1,1
IDU040,21,1073,1,1
IDU040,22,971,1,1
IDU040,23,915,1,1
IDU040,24,971,1,1
IDU011,1,734,0,2
IDU011,1,367,0,4
IDU011,1,467,0,3
IDU011,2,534,0,2
IDU011,2,199,0,4
IDU011,2,167,0,3
IDU011,3,700,0,2
IDU011,3,533,0,4
IDU011,3,266,0,3
IDU011,4,600,0,2
IDU011,4,501,0,4
IDU011,4,267,0,3
IDU011,5,600,0,2
IDU011,5,633,0,4
IDU011,5,434,0,3
IDU011,6,700,0,2
IDU011,6,401,0,4
IDU011,6,467,0,3
IDU011,7,633,0,2
IDU011,7,567,0,4
IDU011,7,100,0,3
IDU011,8,400,0,2
IDU011,8,634,0,4
IDU011,8,400,0,3
IDU011,9,567,0,2
IDU011,9,433,0,4
IDU011,10,567,0,2
IDU011,10,634,0,4
IDU011,10,333,0,3
IDU011,11,368,0,2
IDU011,11,567,0,4
IDU011,12,667,0,2
IDU011,12,334,0,4
IDU011,12,401,0,3
IDU011,13,600,0,2
IDU011,13,434,0,4
IDU011,13,400,0,3
IDU011,14,467,0,2
IDU011,14,700,0,4
IDU011,15,567,0,2
IDU011,15,400,0,4
IDU011,15,400,0,3
IDU011,16,600,0,2
IDU011,16,367,0,4
IDU011,16,467,0,3
IDU011,17,634,0,2
IDU011,17,400,0,4
IDU011,17,467,0,3
IDU013,1,734,0,2
IDU013,1,400,0,4
IDU013,1,367,0,3
IDU013,2,701,0,2
IDU013,2,834,0,4
IDU013,2,66,0,3
IDU013,3,234,0,2
IDU013,3,801,0,4
IDU013,4,634,0,2
IDU013,4,467,0,4
IDU013,4,367,0,3
IDU013,5,567,0,2
IDU013,5,1200,0,4
IDU013,6,633,0,2
IDU013,6,900,0,4
IDU013,7,500,0,2
IDU013,7,700,0,4
IDU013,9,901,0,2
IDU013,9,1301,0,4
IDU013,9,300,0,3
IDU013,10,634,0,2
IDU013,10,734,0,4
IDU013,10,267,0,3
IDU013,11,500,0,2
IDU013,11,1001,0,4
IDU013,11,334,0,3
IDU013,12,434,0,2
IDU013,12,1335,0,4
IDU013,13,401,0,2
IDU013,13,1935,0,4
IDU013,13,333,0,3
IDU013,14,567,0,2
IDU013,14,901,0,4
IDU013,15,634,0,2
IDU013,15,601,0,4
IDU013,15,233,0,3
IDU013,16,633,0,2
IDU013,16,534,0,4
IDU013,16,133,0,3
IDU013,17,700,0,2
IDU013,17,467,0,4
IDU015,1,801,0,2
IDU015,1,600,0,4
IDU015,1,266,0,3
IDU015,2,1000,0,2
IDU015,2,367,0,4
IDU015,2,300,0,3
IDU015,3,833,0,2
IDU015,3,300,0,4
IDU015,3,434,0,3
IDU015,4,734,0,2
IDU015,4,1634,0,4
IDU015,5,567,0,2
IDU015,5,734,0,4
IDU015,6,800,0,2
IDU015,6,333,0,4
IDU015,6,267,0,3
IDU015,7,600,0,2
IDU015,7,701,0,4
IDU015,7,399,0,3
IDU015,8,667,0,2
IDU015,8,466,0,4
IDU015,8,300,0,3
IDU015,9,834,0,2
IDU015,9,367,0,4
IDU015,9,467,0,3
IDU015,10,667,0,2
IDU015,10,368,0,4
IDU015,10,868,0,3
IDU015,11,868,0,2
IDU015,11,400,0,4
IDU015,11,434,0,3
IDU015,12,767,0,2
IDU015,12,801,0,4
IDU015,12,233,0,3
IDU015,13,701,0,2
IDU015,13,401,0,4
IDU015,13,467,0,3
IDU015,14,700,0,2
IDU015,14,700,0,4
IDU015,14,467,0,3
IDU015,15,700,0,2
IDU015,15,800,0,4
IDU015,15,401,0,3
IDU015,16,734,0,2
IDU015,16,434,0,4
IDU015,16,234,0,3
IDU015,17,667,0,2
IDU015,17,400,0,4
IDU015,17,200,0,3
IDU017,1,601,0,2
IDU017,1,834,0,4
IDU017,1,301,0,3
IDU017,2,633,0,2
IDU017,2,467,0,4
IDU017,2,267,0,3
IDU017,3,567,0,2
IDU017,3,1001,0,4
IDU017,3,266,0,3
IDU017,4,601,0,2
IDU017,4,567,0,4
IDU017,5,600,0,2
IDU017,5,300,0,4
IDU017,5,467,0,3
IDU017,6,534,0,2
IDU017,6,734,0,4
IDU017,7,668,0,2
IDU017,7,367,0,4
IDU017,7,367,0,3
IDU017,8,567,0,2
IDU017,8,600,0,4
IDU017,8,233,0,3
IDU017,9,667,0,2
IDU017,9,400,0,4
IDU017,9,300,0,3
IDU017,10,667,0,2
IDU017,10,400,0,4
IDU017,10,267,0,3
IDU017,11,166,0,2
IDU017,11,467,0,4
IDU017,12,601,0,2
IDU017,12,301,0,4
IDU017,12,434,0,3
IDU017,13,667,0,2
IDU017,13,300,0,4
IDU017,14,700,0,2
IDU017,14,333,0,4
IDU017,14,367,0,3
IDU017,15,633,0,2
IDU017,15,233,0,4
IDU017,15,267,0,3
IDU017,16,633,0,2
IDU017,16,433,0,4
IDU017,17,567,0,2
IDU017,17,366,0,4
IDU019,1,834,0,2
IDU019,1,467,0,4
IDU019,2,733,0,2
IDU019,2,333,0,4
IDU019,3,567,0,2
IDU019,3,500,0,4
IDU019,4,1068,0,2
IDU019,4,500,0,4
IDU019,4,566,0,3
IDU019,5,633,0,2
IDU019,5,634,0,4
IDU019,5,500,0,3
IDU019,8,634,0,2
IDU019,8,567,0,4
IDU019,8,267,0,3
IDU019,9,567,0,2
IDU019,9,834,0,4
IDU019,9,434,0,3
IDU019,10,467,0,2
IDU019,10,534,0,4
IDU019,10,200,0,3
IDU019,12,700,0,2
IDU019,12,466,0,4
IDU019,13,801,0,2
IDU019,13,800,0,4
IDU019,13,434,0,3
IDU019,14,1101,0,2
IDU019,14,767,0,4
IDU019,14,333,0,3
IDU019,15,601,0,2
IDU019,15,934,0,4
IDU019,15,401,0,3
IDU019,16,667,0,2
IDU019,16,734,0,4
IDU019,16,533,0,3
IDU019,17,767,0,2
IDU019,17,434,0,4
IDU019,17,267,0,3
IDU021,1,734,0,2
IDU021,1,500,0,4
IDU021,1,233,0,3
IDU021,2,334,0,2
IDU021,2,267,0,4
IDU021,3,734,0,2
IDU021,3,633,0,4
IDU021,3,467,0,3
IDU021,4,767,0,2
IDU021,4,601,0,4
IDU021,4,200,0,3
IDU021,5,734,0,2
IDU021,5,300,0,4
IDU021,6,734,0,2
IDU021,6,467,0,4
IDU021,6,434,0,3
IDU021,7,67,0,2
IDU021,7,167,0,4
IDU021,8,700,0,2
IDU021,8,467,0,4
IDU021,8,567,0,3
IDU021,9,700,0,2
IDU021,9,367,0,4
IDU021,10,734,0,2
IDU021,10,400,0,4
IDU021,11,834,0,2
IDU021,11,400,0,4
IDU021,12,734,0,2
IDU021,12,334,0,4
IDU021,12,334,0,3
IDU021,13,700,0,2
IDU021,13,434,0,4
IDU021,14,700,0,2
IDU021,14,534,0,4
IDU021,14,200,0,3
IDU021,15,667,0,2
IDU021,15,400,0,4
IDU021,15,500,0,3
IDU021,16,601,0,2
IDU021,16,433,0,4
IDU021,16,367,0,3
IDU021,17,801,0,2
IDU021,17,567,0,4
IDU021,17,400,0,3
IDU002,1,534,0,2
IDU002,1,634,0,4
IDU002,1,567,0,3
IDU002,2,668,0,2
IDU002,2,1068,0,4
IDU002,2,700,0,3
IDU002,3,701,0,2
IDU002,3,233,0,4
IDU002,3,167,0,3
IDU002,4,134,0,2
IDU002,4,500,0,4
IDU002,5,501,0,2
IDU002,5,967,0,4
IDU002,5,433,0,3
IDU002,6,634,0,2
IDU002,6,667,0,4
IDU002,7,667,0,2
IDU002,7,434,0,4
IDU002,7,633,0,3
IDU002,8,801,0,2
IDU002,8,500,0,4
IDU002,9,700,0,2
IDU002,9,633,0,4
IDU002,9,500,0,3
IDU002,10,700,0,2
IDU002,10,367,0,4
IDU002,10,134,0,3
IDU002,11,734,0,2
IDU002,11,467,0,4
IDU002,12,601,0,2
IDU002,12,667,0,4
IDU002,12,567,0,3
IDU002,13,667,0,2
IDU002,13,567,0,4
IDU002,13,533,0,3
IDU002,14,633,0,2
IDU002,14,533,0,4
IDU002,15,834,0,2
IDU002,15,500,0,4
IDU002,15,300,0,3
IDU002,16,734,0,2
IDU002,16,900,0,4
IDU002,16,667,0,3
IDU002,17,600,0,2
IDU002,17,534,0,4
IDU002,17,233,0,3
IDU008,1,33,0,2
IDU008,1,800,0,4
IDU008,2,833,0,2
IDU008,2,500,0,4
IDU008,2,300,0,3
IDU008,3,600,0,2
IDU008,3,700,0,4
IDU008,4,700,0,2
IDU008,4,767,0,4
IDU008,4,167,0,3
IDU008,5,433,0,2
IDU008,5,634,0,4
IDU008,5,234,0,3
IDU008,6,634,0,2
IDU008,6,567,0,4
IDU008,6,267,0,3
IDU008,7,601,0,2
IDU008,7,400,0,4
IDU008,7,200,0,3
IDU008,8,567,0,2
IDU008,8,667,0,4
IDU008,8,200,0,3
IDU008,9,667,0,2
IDU008,9,600,0,4
IDU008,9,267,0,3
IDU008,10,433,0,2
IDU008,10,634,0,4
IDU008,10,33,0,3
IDU008,11,501,0,2
IDU008,11,301,0,4
IDU008,12,467,0,2
IDU008,12,600,0,4
IDU008,13,601,0,2
IDU008,13,500,0,4
IDU008,13,300,0,3
IDU008,14,601,0,2
IDU008,14,934,0,4
IDU008,14,366,0,3
IDU008,15,667,0,2
IDU008,15,400,0,4
IDU008,15,200,0,3
IDU008,16,567,0,2
IDU008,16,433,0,4
IDU008,16,401,0,3
IDU008,17,600,0,2
IDU008,17,400,0,4
IDU024,1,634,0,2
IDU024,1,468,0,4
IDU024,1,333,0,3
IDU024,2,667,0,2
IDU024,2,334,0,4
IDU024,2,367,0,3
IDU024,3,834,0,2
IDU024,3,434,0,4
IDU024,3,467,0,3
IDU024,4,734,0,2
IDU024,4,300,0,4
IDU024,4,334,0,3
IDU024,5,800,0,2
IDU024,5,234,0,4
IDU024,5,367,0,3
IDU024,6,800,0,2
IDU024,6,333,0,4
IDU024,7,767,0,2
IDU024,7,367,0,4
IDU024,7,266,0,3
IDU024,8,734,0,2
IDU024,8,501,0,4
IDU024,8,199,0,3
IDU024,9,767,0,2
IDU024,9,300,0,4
IDU024,9,401,0,3
IDU024,10,667,0,2
IDU024,10,501,0,4
IDU024,10,600,0,3
IDU024,11,601,0,2
IDU024,11,667,0,4
IDU024,11,701,0,3
IDU024,12,701,0,2
IDU024,12,501,0,4
IDU024,12,501,0,3
IDU024,13,367,0,2
IDU024,13,467,0,4
IDU024,14,667,0,2
IDU024,14,367,0,4
IDU024,14,601,0,3
IDU024,15,667,0,2
IDU024,15,1067,0,4
IDU024,15,601,0,3
IDU024,16,767,0,2
IDU024,16,267,0,4
IDU024,16,300,0,3
IDU024,17,401,0,2
IDU024,17,767,0,4
IDU024,17,600,0,3
IDU025,1,634,0,2
IDU025,1,567,0,4
IDU025,2,734,0,2
IDU025,2,266,0,4
IDU025,2,734,0,3
IDU025,3,733,0,2
IDU025,3,734,0,4
IDU025,3,767,0,3
IDU025,4,635,0,2
IDU025,4,400,0,4
IDU025,4,668,0,3
IDU025,5,734,0,2
IDU025,5,467,0,4
IDU025,5,467,0,3
IDU025,6,533,0,2
IDU025,6,435,0,4
IDU025,7,734,0,2
IDU025,7,533,0,4
IDU025,7,601,0,3
IDU025,8,867,0,2
IDU025,8,1201,0,4
IDU025,8,568,0,3
IDU025,9,867,0,2
IDU025,9,433,0,4
IDU025,9,567,0,3
IDU025,10,701,0,2
IDU025,10,567,0,4
IDU025,10,567,0,3
IDU025,11,667,0,2
IDU025,11,434,0,4
IDU025,11,634,0,3
IDU025,12,600,0,2
IDU025,12,567,0,4
IDU025,12,534,0,3
IDU025,13,800,0,2
IDU025,13,633,0,4
IDU025,13,500,0,3
IDU025,14,267,0,2
IDU025,14,634,0,4
IDU025,15,567,0,2
IDU025,15,533,0,4
IDU025,15,634,0,3
IDU025,16,767,0,2
IDU025,16,901,0,4
IDU025,16,601,0,3
IDU025,17,300,0,2
IDU025,17,534,0,4
IDU027,1,601,0,2
IDU027,1,300,0,4
IDU027,1,467,0,3
IDU027,2,734,0,2
IDU027,2,433,0,4
IDU027,3,767,0,2
IDU027,3,333,0,4
IDU027,3,534,0,3
IDU027,4,700,0,2
IDU027,4,401,0,4
IDU027,4,500,0,3
IDU027,5,667,0,2
IDU027,5,467,0,4
IDU027,5,500,0,3
IDU027,6,834,0,2
IDU027,6,333,0,4
IDU027,6,500,0,3
IDU027,7,701,0,2
IDU027,7,334,0,4
IDU027,7,568,0,3
IDU027,8,901,0,2
IDU027,8,300,0,4
IDU027,8,500,0,3
IDU027,9,700,0,2
IDU027,9,467,0,4
IDU027,9,367,0,3
IDU027,10,668,0,2
IDU027,10,434,0,4
IDU027,11,601,0,2
IDU027,11,367,0,4
IDU027,11,234,0,3
IDU027,12,600,0,2
IDU027,12,368,0,4
IDU027,12,367,0,3
IDU027,14,600,0,2
IDU027,14,2835,0,4
IDU027,14,200,0,3
IDU027,15,600,0,2
IDU027,15,367,0,4
IDU027,15,333,0,3
IDU027,16,768,0,2
IDU027,16,367,0,4
IDU027,16,500,0,3
IDU027,17,667,0,2
IDU027,17,433,0,4
IDU027,17,534,0,3
IDU029,1,468,0,2
IDU029,1,333,0,4
IDU029,1,734,0,3
IDU029,2,500,0,2
IDU029,2,333,0,4
IDU029,3,234,0,2
IDU029,3,567,0,4
IDU029,3,667,0,3
IDU029,4,434,0,2
IDU029,4,433,0,4
IDU029,4,567,0,3
IDU029,5,567,0,2
IDU029,5,334,0,4
IDU029,5,701,0,3
IDU029,6,701,0,2
IDU029,6,401,0,4
IDU029,6,600,0,3
IDU029,7,567,0,2
IDU029,7,334,0,4
IDU029,7,534,0,3
IDU029,8,467,0,2
IDU029,8,467,0,4
IDU029,8,601,0,3
IDU029,9,701,0,2
IDU029,9,434,0,4
IDU029,9,434,0,3
IDU029,10,633,0,2
IDU029,10,534,0,4
IDU029,10,400,0,3
IDU029,11,734,0,2
IDU029,11,1033,0,4
IDU029,11,467,0,3
IDU029,12,733,0,2
IDU029,12,267,0,4
IDU029,12,300,0,3
IDU029,13,634,0,2
IDU029,13,500,0,4
IDU029,13,767,0,3
IDU029,14,767,0,2
IDU029,14,368,0,4
IDU029,15,567,0,2
IDU029,15,400,0,4
IDU029,15,567,0,3
IDU029,16,767,0,2
IDU029,16,300,0,4
IDU029,17,701,0,2
IDU029,17,467,0,4
IDU029,17,534,0,3
IDU031,1,901,0,2
IDU031,1,401,0,4
IDU031,1,301,0,3
IDU031,2,734,0,2
IDU031,2,367,0,4
IDU031,2,333,0,3
IDU031,3,233,0,2
IDU031,3,367,0,4
IDU031,4,367,0,2
IDU031,4,368,0,4
IDU031,5,801,0,2
IDU031,5,267,0,4
IDU031,5,500,0,3
IDU031,6,600,0,2
IDU031,6,466,0,4
IDU031,6,434,0,3
IDU031,7,801,0,2
IDU031,7,934,0,4
IDU031,7,501,0,3
IDU031,8,734,0,2
IDU031,8,401,0,4
IDU031,8,533,0,3
IDU031,9,768,0,2
IDU031,9,367,0,4
IDU031,9,400,0,3
IDU031,10,800,0,2
IDU031,10,567,0,4
IDU031,10,533,0,3
IDU031,11,634,0,2
IDU031,11,434,0,4
IDU031,11,167,0,3
IDU031,12,668,0,2
IDU031,12,434,0,4
IDU031,12,534,0,3
IDU031,13,701,0,2
IDU031,13,1001,0,4
IDU031,13,433,0,3
IDU031,14,701,0,2
IDU031,14,367,0,4
IDU031,14,401,0,3
IDU031,15,801,0,2
IDU031,15,433,0,4
IDU031,16,600,0,2
IDU031,16,401,0,4
IDU031,16,601,0,3
IDU031,17,367,0,2
IDU031,17,367,0,4
IDU033,1,734,0,2
IDU033,1,433,0,4
IDU033,1,267,0,3
IDU033,2,700,0,2
IDU033,2,300,0,4
IDU033,2,300,0,3
IDU033,3,600,0,2
IDU033,3,401,0,4
IDU033,3,267,0,3
IDU033,4,567,0,2
IDU033,4,567,0,4
IDU033,4,267,0,3
IDU033,5,267,0,2
IDU033,5,634,0,4
IDU033,6,500,0,2
IDU033,6,400,0,4
IDU033,7,800,0,2
IDU033,7,200,0,4
IDU033,7,400,0,3
IDU033,8,1135,0,2
IDU033,8,201,0,4
IDU033,8,334,0,3
IDU033,9,967,0,2
IDU033,9,200,0,4
IDU033,9,267,0,3
IDU033,10,467,0,2
IDU033,10,300,0,4
IDU033,11,734,0,2
IDU033,11,267,0,4
IDU033,12,701,0,2
IDU033,12,433,0,4
IDU033,12,467,0,3
IDU033,13,801,0,2
IDU033,13,300,0,4
IDU033,13,233,0,3
IDU033,14,1000,0,2
IDU033,14,233,0,4
IDU033,14,267,0,3
IDU033,15,700,0,2
IDU033,15,300,0,4
IDU033,15,234,0,3
IDU033,16,701,0,2
IDU033,16,301,0,4
IDU033,16,301,0,3
IDU033,17,534,0,2
IDU033,17,633,0,4
IDU033,17,300,0,3
IDU035,1,466,0,2
IDU035,1,434,0,4
IDU035,2,834,0,2
IDU035,2,1935,0,4
IDU035,2,934,0,3
IDU035,3,734,0,2
IDU035,3,434,0,4
IDU035,3,334,0,3
IDU035,4,768,0,2
IDU035,4,1834,0,4
IDU035,5,700,0,2
IDU035,5,434,0,4
IDU035,6,801,0,2
IDU035,6,334,0,4
IDU035,6,501,0,3
IDU035,7,767,0,2
IDU035,7,600,0,4
IDU035,7,534,0,3
IDU035,8,667,0,2
IDU035,8,568,0,4
IDU035,8,367,0,3
IDU035,9,601,0,2
IDU035,9,600,0,4
IDU035,9,233,0,3
IDU035,10,668,0,2
IDU035,10,567,0,4
IDU035,10,234,0,3
IDU035,11,701,0,2
IDU035,11,334,0,4
IDU035,11,167,0,3
IDU035,12,599,0,2
IDU035,12,600,0,4
IDU035,12,534,0,3
IDU035,13,734,0,2
IDU035,13,434,0,4
IDU035,13,234,0,3
IDU035,14,701,0,2
IDU035,14,601,0,4
IDU035,14,567,0,3
IDU035,15,100,0,2
IDU035,15,400,0,4
IDU035,16,668,0,2
IDU035,16,500,0,4
IDU035,16,434,0,3
IDU035,17,400,0,2
IDU035,17,1000,0,4
IDU035,17,500,0,3
IDU037,1,801,0,2
IDU037,1,467,0,4
IDU037,1,467,0,3
IDU037,2,767,0,2
IDU037,2,367,0,4
IDU037,2,567,0,3
IDU037,3,867,0,2
IDU037,3,433,0,4
IDU037,3,534,0,3
IDU037,4,901,0,2
IDU037,4,434,0,4
IDU037,4,266,0,3
IDU037,5,601,0,2
IDU037,5,501,0,4
IDU037,5,99,0,3
IDU037,6,800,0,2
IDU037,6,500,0,4
IDU037,6,533,0,3
IDU037,7,967,0,2
IDU037,7,400,0,4
IDU037,7,300,0,3
IDU037,8,734,0,2
IDU037,8,367,0,4
IDU037,8,367,0,3
IDU037,9,633,0,2
IDU037,9,433,0,4
IDU037,9,334,0,3
IDU037,10,768,0,2
IDU037,10,367,0,4
IDU037,10,433,0,3
IDU037,11,833,0,2
IDU037,11,433,0,4
IDU037,11,300,0,3
IDU037,12,867,0,2
IDU037,12,434,0,4
IDU037,12,234,0,3
IDU037,13,667,0,2
IDU037,13,434,0,4
IDU037,13,233,0,3
IDU037,14,1001,0,2
IDU037,14,567,0,4
IDU037,14,367,0,3
IDU037,15,834,0,2
IDU037,15,501,0,4
IDU037,15,334,0,3
IDU037,16,1267,0,2
IDU037,16,300,0,4
IDU037,16,367,0,3
IDU037,17,967,0,2
IDU037,17,333,0,4
IDU038,1,334,0,2
IDU038,1,734,0,4
IDU038,2,768,0,2
IDU038,2,367,0,4
IDU038,2,900,0,3
IDU038,3,634,0,2
IDU038,3,667,0,4
IDU038,3,900,0,3
IDU038,4,700,0,2
IDU038,4,533,0,4
IDU038,4,600,0,3
IDU038,5,634,0,2
IDU038,5,601,0,4
IDU038,5,601,0,3
IDU038,6,767,0,2
IDU038,6,600,0,4
IDU038,7,200,0,2
IDU038,7,434,0,4
IDU038,8,768,0,2
IDU038,8,567,0,4
IDU038,8,633,0,3
IDU038,9,801,0,2
IDU038,9,434,0,4
IDU038,9,601,0,3
IDU038,10,600,0,2
IDU038,10,668,0,4
IDU038,10,767,0,3
IDU038,11,833,0,2
IDU038,11,467,0,4
IDU038,11,467,0,3
IDU038,12,534,0,2
IDU038,12,901,0,4
IDU038,12,667,0,3
IDU038,13,634,0,2
IDU038,13,867,0,4
IDU038,13,634,0,3
IDU038,14,934,0,2
IDU038,14,534,0,4
IDU038,14,667,0,3
IDU038,15,768,0,2
IDU038,15,634,0,4
IDU038,15,634,0,3
IDU038,16,634,0,2
IDU038,16,500,0,4
IDU038,17,734,0,2
IDU038,17,600,0,4
IDU040,1,368,0,2
IDU040,1,434,0,4
IDU040,1,434,0,3
IDU040,2,500,0,2
IDU040,2,534,0,4
IDU040,2,367,0,3
IDU040,3,534,0,2
IDU040,3,400,0,4
IDU040,4,768,0,2
IDU040,4,467,0,4
IDU040,4,667,0,3
IDU040,5,734,0,2
IDU040,5,534,0,4
IDU040,5,301,0,3
IDU040,6,767,0,2
IDU040,6,1101,0,4
IDU040,7,600,0,2
IDU040,7,867,0,4
IDU040,7,368,0,3
IDU040,8,700,0,2
IDU040,8,600,0,4
IDU040,9,667,0,2
IDU040,9,567,0,4
IDU040,9,534,0,3
IDU040,10,634,0,2
IDU040,10,300,0,4
IDU040,11,600,0,2
IDU040,11,768,0,4
IDU040,11,534,0,3
IDU040,12,701,0,2
IDU040,12,400,0,4
IDU040,12,301,0,3
IDU040,13,667,0,2
IDU040,13,601,0,4
IDU040,13,300,0,3
IDU040,14,667,0,2
IDU040,14,567,0,4
IDU040,14,600,0,3
IDU040,15,700,0,2
IDU040,15,535,0,4
IDU040,15,600,0,3
IDU040,16,734,0,2
IDU040,16,501,0,4
IDU040,16,467,0,3
IDU040,17,634,0,2
IDU040,17,401,0,4
IDU040,17,601,0,3
